# Published experiment
#
# Results on Tuesday March 30 2021 13:05:09 UTC
# USER AGENT: Mozilla/5.0 (Macintosh; Intel Mac OS X 11_2_3) AppleWebKit/537.36 (KHTML, like Gecko) Chrome/89.0.4389.105 Safari/537.36
# Design number was non-random = 0
#
# Columns below this comment are as follows:
# 1. Results reception time.
# 2. MD5 hash of participant's IP address.
# 3. Controller name.
# 4. Order number of item.
# 5. Inner element number.
# 6. Label.
# 7. Latin Square Group.
# 8. PennElementType.
# 9. PennElementName.
# 10. Parameter.
# 11. Value.
# 12. EventTime.
# 13. targetWords.
# 14. Comments.
1617109509,45092d72b3875b9fc1b321df0d2dc161,PennController,0,0,welcome,NULL,PennController,0,_Trial_,Start,1617108992050,cereal corn rice vinegar meat salad snail hamster lion sheep frog penguin trucker dentist accountant actor nurse designer socks hat jeans scarf shorts underwear,NULL
1617109509,45092d72b3875b9fc1b321df0d2dc161,PennController,0,0,welcome,NULL,PennController,0,_Header_,Start,1617108992051,cereal corn rice vinegar meat salad snail hamster lion sheep frog penguin trucker dentist accountant actor nurse designer socks hat jeans scarf shorts underwear,NULL
1617109509,45092d72b3875b9fc1b321df0d2dc161,PennController,0,0,welcome,NULL,PennController,0,_Header_,End,1617108992373,cereal corn rice vinegar meat salad snail hamster lion sheep frog penguin trucker dentist accountant actor nurse designer socks hat jeans scarf shorts underwear,NULL
1617109509,45092d72b3875b9fc1b321df0d2dc161,PennController,0,0,welcome,NULL,PennController,0,_Trial_,End,1617109024275,cereal corn rice vinegar meat salad snail hamster lion sheep frog penguin trucker dentist accountant actor nurse designer socks hat jeans scarf shorts underwear,NULL
# 13. Comments.
1617109509,45092d72b3875b9fc1b321df0d2dc161,PennController,1,0,demographics-age,NULL,PennController,1,_Trial_,Start,1617109024280,NULL
1617109509,45092d72b3875b9fc1b321df0d2dc161,PennController,1,0,demographics-age,NULL,PennController,1,_Header_,Start,1617109024280,NULL
1617109509,45092d72b3875b9fc1b321df0d2dc161,PennController,1,0,demographics-age,NULL,PennController,1,_Header_,End,1617109024601,NULL
1617109509,45092d72b3875b9fc1b321df0d2dc161,PennController,1,0,demographics-age,NULL,TextInput,age-input,Final,27,1617109030908,NULL
1617109509,45092d72b3875b9fc1b321df0d2dc161,PennController,1,0,demographics-age,NULL,PennController,1,_Trial_,End,1617109030908,NULL
1617109509,45092d72b3875b9fc1b321df0d2dc161,PennController,2,0,demographics-gender,NULL,PennController,2,_Trial_,Start,1617109030913,NULL
1617109509,45092d72b3875b9fc1b321df0d2dc161,PennController,2,0,demographics-gender,NULL,PennController,2,_Header_,Start,1617109030913,NULL
1617109509,45092d72b3875b9fc1b321df0d2dc161,PennController,2,0,demographics-gender,NULL,PennController,2,_Header_,End,1617109031229,NULL
1617109509,45092d72b3875b9fc1b321df0d2dc161,PennController,2,0,demographics-gender,NULL,Scale,gender,Choice,female,1617109033376,NULL
1617109509,45092d72b3875b9fc1b321df0d2dc161,PennController,2,0,demographics-gender,NULL,PennController,2,_Trial_,End,1617109033377,NULL
1617109509,45092d72b3875b9fc1b321df0d2dc161,PennController,3,0,demographics-bored,NULL,PennController,3,_Trial_,Start,1617109033378,NULL
1617109509,45092d72b3875b9fc1b321df0d2dc161,PennController,3,0,demographics-bored,NULL,PennController,3,_Header_,Start,1617109033379,NULL
1617109509,45092d72b3875b9fc1b321df0d2dc161,PennController,3,0,demographics-bored,NULL,PennController,3,_Header_,End,1617109033690,NULL
1617109509,45092d72b3875b9fc1b321df0d2dc161,PennController,3,0,demographics-bored,NULL,Scale,bored,Choice,Very True,1617109040070,NULL
1617109509,45092d72b3875b9fc1b321df0d2dc161,PennController,3,0,demographics-bored,NULL,PennController,3,_Trial_,End,1617109040071,NULL
1617109509,45092d72b3875b9fc1b321df0d2dc161,PennController,4,0,demographics-movies,NULL,PennController,4,_Trial_,Start,1617109040073,NULL
1617109509,45092d72b3875b9fc1b321df0d2dc161,PennController,4,0,demographics-movies,NULL,PennController,4,_Header_,Start,1617109040073,NULL
1617109509,45092d72b3875b9fc1b321df0d2dc161,PennController,4,0,demographics-movies,NULL,PennController,4,_Header_,End,1617109040385,NULL
1617109509,45092d72b3875b9fc1b321df0d2dc161,PennController,4,0,demographics-movies,NULL,Scale,movies,Choice,Neutral,1617109050217,NULL
1617109509,45092d72b3875b9fc1b321df0d2dc161,PennController,4,0,demographics-movies,NULL,PennController,4,_Trial_,End,1617109050219,NULL
1617109509,45092d72b3875b9fc1b321df0d2dc161,PennController,5,0,instructions-relaxation,NULL,PennController,5,_Trial_,Start,1617109050221,NULL
1617109509,45092d72b3875b9fc1b321df0d2dc161,PennController,5,0,instructions-relaxation,NULL,PennController,5,_Header_,Start,1617109050221,NULL
1617109509,45092d72b3875b9fc1b321df0d2dc161,PennController,5,0,instructions-relaxation,NULL,PennController,5,_Header_,End,1617109050535,NULL
1617109509,45092d72b3875b9fc1b321df0d2dc161,PennController,5,0,instructions-relaxation,NULL,PennController,5,_Trial_,End,1617109062002,NULL
1617109509,45092d72b3875b9fc1b321df0d2dc161,PennController,6,0,instructions-show-words,NULL,PennController,6,_Trial_,Start,1617109062003,NULL
1617109509,45092d72b3875b9fc1b321df0d2dc161,PennController,6,0,instructions-show-words,NULL,PennController,6,_Header_,Start,1617109062003,NULL
1617109509,45092d72b3875b9fc1b321df0d2dc161,PennController,6,0,instructions-show-words,NULL,PennController,6,_Header_,End,1617109062316,NULL
1617109509,45092d72b3875b9fc1b321df0d2dc161,PennController,6,0,instructions-show-words,NULL,PennController,6,_Trial_,End,1617109076963,NULL
1617109509,45092d72b3875b9fc1b321df0d2dc161,PennController,7,0,show-all-words-trial,NULL,PennController,7,_Trial_,Start,1617109076965,NULL
1617109509,45092d72b3875b9fc1b321df0d2dc161,PennController,7,0,show-all-words-trial,NULL,PennController,7,_Header_,Start,1617109076965,NULL
1617109509,45092d72b3875b9fc1b321df0d2dc161,PennController,7,0,show-all-words-trial,NULL,PennController,7,_Header_,End,1617109077281,NULL
1617109509,45092d72b3875b9fc1b321df0d2dc161,PennController,7,0,show-all-words-trial,NULL,PennController,7,_Trial_,End,1617109227838,NULL
1617109509,45092d72b3875b9fc1b321df0d2dc161,PennController,8,0,recall-trial,NULL,PennController,8,_Trial_,Start,1617109227839,NULL
1617109509,45092d72b3875b9fc1b321df0d2dc161,PennController,8,0,recall-trial,NULL,PennController,8,_Header_,Start,1617109227839,NULL
1617109509,45092d72b3875b9fc1b321df0d2dc161,PennController,8,0,recall-trial,NULL,PennController,8,_Header_,End,1617109228152,NULL
1617109509,45092d72b3875b9fc1b321df0d2dc161,PennController,8,0,recall-trial,NULL,Html,recall,recall_1,coat,1617109273837,text input
1617109509,45092d72b3875b9fc1b321df0d2dc161,PennController,8,0,recall-trial,NULL,Html,recall,recall_2,donkey,1617109273837,text input
1617109509,45092d72b3875b9fc1b321df0d2dc161,PennController,8,0,recall-trial,NULL,Html,recall,recall_3,designer,1617109273837,text input
1617109509,45092d72b3875b9fc1b321df0d2dc161,PennController,8,0,recall-trial,NULL,Html,recall,recall_4,corn,1617109273837,text input
1617109509,45092d72b3875b9fc1b321df0d2dc161,PennController,8,0,recall-trial,NULL,Html,recall,recall_5,scarf,1617109273837,text input
1617109509,45092d72b3875b9fc1b321df0d2dc161,PennController,8,0,recall-trial,NULL,Html,recall,recall_6,snake,1617109273837,text input
1617109509,45092d72b3875b9fc1b321df0d2dc161,PennController,8,0,recall-trial,NULL,Html,recall,recall_7,lemon,1617109273837,text input
1617109509,45092d72b3875b9fc1b321df0d2dc161,PennController,8,0,recall-trial,NULL,Html,recall,recall_8,,1617109273837,text input
1617109509,45092d72b3875b9fc1b321df0d2dc161,PennController,8,0,recall-trial,NULL,Html,recall,recall_9,,1617109273837,text input
1617109509,45092d72b3875b9fc1b321df0d2dc161,PennController,8,0,recall-trial,NULL,Html,recall,recall_10,,1617109273837,text input
1617109509,45092d72b3875b9fc1b321df0d2dc161,PennController,8,0,recall-trial,NULL,Html,recall,recall_11,,1617109273837,text input
1617109509,45092d72b3875b9fc1b321df0d2dc161,PennController,8,0,recall-trial,NULL,Html,recall,recall_12,,1617109273837,text input
1617109509,45092d72b3875b9fc1b321df0d2dc161,PennController,8,0,recall-trial,NULL,Html,recall,recall_13,,1617109273837,text input
1617109509,45092d72b3875b9fc1b321df0d2dc161,PennController,8,0,recall-trial,NULL,Html,recall,recall_14,,1617109273837,text input
1617109509,45092d72b3875b9fc1b321df0d2dc161,PennController,8,0,recall-trial,NULL,Html,recall,recall_15,,1617109273837,text input
1617109509,45092d72b3875b9fc1b321df0d2dc161,PennController,8,0,recall-trial,NULL,Html,recall,recall_16,,1617109273837,text input
1617109509,45092d72b3875b9fc1b321df0d2dc161,PennController,8,0,recall-trial,NULL,Html,recall,recall_17,,1617109273837,text input
1617109509,45092d72b3875b9fc1b321df0d2dc161,PennController,8,0,recall-trial,NULL,Html,recall,recall_18,,1617109273837,text input
1617109509,45092d72b3875b9fc1b321df0d2dc161,PennController,8,0,recall-trial,NULL,Html,recall,recall_19,,1617109273837,text input
1617109509,45092d72b3875b9fc1b321df0d2dc161,PennController,8,0,recall-trial,NULL,Html,recall,recall_20,,1617109273837,text input
1617109509,45092d72b3875b9fc1b321df0d2dc161,PennController,8,0,recall-trial,NULL,Html,recall,recall_21,,1617109273837,text input
1617109509,45092d72b3875b9fc1b321df0d2dc161,PennController,8,0,recall-trial,NULL,Html,recall,recall_22,,1617109273837,text input
1617109509,45092d72b3875b9fc1b321df0d2dc161,PennController,8,0,recall-trial,NULL,Html,recall,recall_23,,1617109273837,text input
1617109509,45092d72b3875b9fc1b321df0d2dc161,PennController,8,0,recall-trial,NULL,Html,recall,recall_24,,1617109273837,text input
1617109509,45092d72b3875b9fc1b321df0d2dc161,PennController,8,0,recall-trial,NULL,Html,recall,recall_25,,1617109273837,text input
1617109509,45092d72b3875b9fc1b321df0d2dc161,PennController,8,0,recall-trial,NULL,Html,recall,recall_26,,1617109273837,text input
1617109509,45092d72b3875b9fc1b321df0d2dc161,PennController,8,0,recall-trial,NULL,Html,recall,recall_27,,1617109273837,text input
1617109509,45092d72b3875b9fc1b321df0d2dc161,PennController,8,0,recall-trial,NULL,Html,recall,recall_28,,1617109273837,text input
1617109509,45092d72b3875b9fc1b321df0d2dc161,PennController,8,0,recall-trial,NULL,Html,recall,recall_29,,1617109273837,text input
1617109509,45092d72b3875b9fc1b321df0d2dc161,PennController,8,0,recall-trial,NULL,Html,recall,recall_30,,1617109273837,text input
1617109509,45092d72b3875b9fc1b321df0d2dc161,PennController,8,0,recall-trial,NULL,Html,recall,recall_31,,1617109273837,text input
1617109509,45092d72b3875b9fc1b321df0d2dc161,PennController,8,0,recall-trial,NULL,Html,recall,recall_32,,1617109273837,text input
1617109509,45092d72b3875b9fc1b321df0d2dc161,PennController,8,0,recall-trial,NULL,Html,recall,recall_33,,1617109273837,text input
1617109509,45092d72b3875b9fc1b321df0d2dc161,PennController,8,0,recall-trial,NULL,Html,recall,recall_34,,1617109273837,text input
1617109509,45092d72b3875b9fc1b321df0d2dc161,PennController,8,0,recall-trial,NULL,Html,recall,recall_35,,1617109273837,text input
1617109509,45092d72b3875b9fc1b321df0d2dc161,PennController,8,0,recall-trial,NULL,Html,recall,recall_36,,1617109273837,text input
1617109509,45092d72b3875b9fc1b321df0d2dc161,PennController,8,0,recall-trial,NULL,Html,recall,recall_37,,1617109273837,text input
1617109509,45092d72b3875b9fc1b321df0d2dc161,PennController,8,0,recall-trial,NULL,Html,recall,recall_38,,1617109273837,text input
1617109509,45092d72b3875b9fc1b321df0d2dc161,PennController,8,0,recall-trial,NULL,Html,recall,recall_39,,1617109273837,text input
1617109509,45092d72b3875b9fc1b321df0d2dc161,PennController,8,0,recall-trial,NULL,Html,recall,recall_40,,1617109273837,text input
1617109509,45092d72b3875b9fc1b321df0d2dc161,PennController,8,0,recall-trial,NULL,Html,recall,recall_42,,1617109273837,text input
1617109509,45092d72b3875b9fc1b321df0d2dc161,PennController,8,0,recall-trial,NULL,Html,recall,recall_43,,1617109273837,text input
1617109509,45092d72b3875b9fc1b321df0d2dc161,PennController,8,0,recall-trial,NULL,Html,recall,recall_44,,1617109273837,text input
1617109509,45092d72b3875b9fc1b321df0d2dc161,PennController,8,0,recall-trial,NULL,Html,recall,recall_45,,1617109273837,text input
1617109509,45092d72b3875b9fc1b321df0d2dc161,PennController,8,0,recall-trial,NULL,Html,recall,recall_46,,1617109273838,text input
1617109509,45092d72b3875b9fc1b321df0d2dc161,PennController,8,0,recall-trial,NULL,Html,recall,recall_47,,1617109273838,text input
1617109509,45092d72b3875b9fc1b321df0d2dc161,PennController,8,0,recall-trial,NULL,Html,recall,recall_48,,1617109273838,text input
1617109509,45092d72b3875b9fc1b321df0d2dc161,PennController,8,0,recall-trial,NULL,PennController,8,_Trial_,End,1617109273838,NULL
1617109509,45092d72b3875b9fc1b321df0d2dc161,PennController,9,0,instructions-training-1,NULL,PennController,9,_Trial_,Start,1617109273842,NULL
1617109509,45092d72b3875b9fc1b321df0d2dc161,PennController,9,0,instructions-training-1,NULL,PennController,9,_Header_,Start,1617109273842,NULL
1617109509,45092d72b3875b9fc1b321df0d2dc161,PennController,9,0,instructions-training-1,NULL,PennController,9,_Header_,End,1617109274151,NULL
1617109509,45092d72b3875b9fc1b321df0d2dc161,PennController,9,0,instructions-training-1,NULL,PennController,9,_Trial_,End,1617109283243,NULL
1617109509,45092d72b3875b9fc1b321df0d2dc161,PennController,10,0,show-foods-words-trial,NULL,PennController,10,_Trial_,Start,1617109283246,NULL
1617109509,45092d72b3875b9fc1b321df0d2dc161,PennController,10,0,show-foods-words-trial,NULL,PennController,10,_Header_,Start,1617109283246,NULL
1617109509,45092d72b3875b9fc1b321df0d2dc161,PennController,10,0,show-foods-words-trial,NULL,PennController,10,_Header_,End,1617109283559,NULL
1617109509,45092d72b3875b9fc1b321df0d2dc161,PennController,10,0,show-foods-words-trial,NULL,PennController,10,_Trial_,End,1617109302401,NULL
1617109509,45092d72b3875b9fc1b321df0d2dc161,PennController,11,0,show-animals-words-trial,NULL,PennController,11,_Trial_,Start,1617109302402,NULL
1617109509,45092d72b3875b9fc1b321df0d2dc161,PennController,11,0,show-animals-words-trial,NULL,PennController,11,_Header_,Start,1617109302402,NULL
1617109509,45092d72b3875b9fc1b321df0d2dc161,PennController,11,0,show-animals-words-trial,NULL,PennController,11,_Header_,End,1617109302711,NULL
1617109509,45092d72b3875b9fc1b321df0d2dc161,PennController,11,0,show-animals-words-trial,NULL,PennController,11,_Trial_,End,1617109321540,NULL
1617109509,45092d72b3875b9fc1b321df0d2dc161,PennController,12,0,show-occupations-words-trial,NULL,PennController,12,_Trial_,Start,1617109321541,NULL
1617109509,45092d72b3875b9fc1b321df0d2dc161,PennController,12,0,show-occupations-words-trial,NULL,PennController,12,_Header_,Start,1617109321541,NULL
1617109509,45092d72b3875b9fc1b321df0d2dc161,PennController,12,0,show-occupations-words-trial,NULL,PennController,12,_Header_,End,1617109321852,NULL
1617109509,45092d72b3875b9fc1b321df0d2dc161,PennController,12,0,show-occupations-words-trial,NULL,PennController,12,_Trial_,End,1617109340661,NULL
1617109509,45092d72b3875b9fc1b321df0d2dc161,PennController,13,0,show-clothing-words-trial,NULL,PennController,13,_Trial_,Start,1617109340662,NULL
1617109509,45092d72b3875b9fc1b321df0d2dc161,PennController,13,0,show-clothing-words-trial,NULL,PennController,13,_Header_,Start,1617109340662,NULL
1617109509,45092d72b3875b9fc1b321df0d2dc161,PennController,13,0,show-clothing-words-trial,NULL,PennController,13,_Header_,End,1617109340971,NULL
1617109509,45092d72b3875b9fc1b321df0d2dc161,PennController,13,0,show-clothing-words-trial,NULL,PennController,13,_Trial_,End,1617109359800,NULL
1617109509,45092d72b3875b9fc1b321df0d2dc161,PennController,14,0,instructions-training-2,NULL,PennController,14,_Trial_,Start,1617109359802,NULL
1617109509,45092d72b3875b9fc1b321df0d2dc161,PennController,14,0,instructions-training-2,NULL,PennController,14,_Header_,Start,1617109359802,NULL
1617109509,45092d72b3875b9fc1b321df0d2dc161,PennController,14,0,instructions-training-2,NULL,PennController,14,_Header_,End,1617109360113,NULL
1617109509,45092d72b3875b9fc1b321df0d2dc161,PennController,14,0,instructions-training-2,NULL,PennController,14,_Trial_,End,1617109364494,NULL
1617109509,45092d72b3875b9fc1b321df0d2dc161,PennController,15,0,click-foods-words-trial,NULL,PennController,15,_Trial_,Start,1617109364496,NULL
1617109509,45092d72b3875b9fc1b321df0d2dc161,PennController,15,0,click-foods-words-trial,NULL,PennController,15,_Header_,Start,1617109364496,NULL
1617109509,45092d72b3875b9fc1b321df0d2dc161,PennController,15,0,click-foods-words-trial,NULL,PennController,15,_Header_,End,1617109364807,NULL
1617109509,45092d72b3875b9fc1b321df0d2dc161,PennController,15,0,click-foods-words-trial,NULL,PennController,15,_Trial_,End,1617109383851,NULL
1617109509,45092d72b3875b9fc1b321df0d2dc161,PennController,16,0,enter-foods-words-trial,NULL,PennController,16,_Trial_,Start,1617109383857,NULL
1617109509,45092d72b3875b9fc1b321df0d2dc161,PennController,16,0,enter-foods-words-trial,NULL,PennController,16,_Header_,Start,1617109383857,NULL
1617109509,45092d72b3875b9fc1b321df0d2dc161,PennController,16,0,enter-foods-words-trial,NULL,PennController,16,_Header_,End,1617109384173,NULL
1617109509,45092d72b3875b9fc1b321df0d2dc161,PennController,16,0,enter-foods-words-trial,NULL,PennController,16,_Trial_,End,1617109409247,NULL
1617109509,45092d72b3875b9fc1b321df0d2dc161,PennController,17,0,click-animals-words-trial,NULL,PennController,17,_Trial_,Start,1617109409253,NULL
1617109509,45092d72b3875b9fc1b321df0d2dc161,PennController,17,0,click-animals-words-trial,NULL,PennController,17,_Header_,Start,1617109409253,NULL
1617109509,45092d72b3875b9fc1b321df0d2dc161,PennController,17,0,click-animals-words-trial,NULL,PennController,17,_Header_,End,1617109409575,NULL
1617109509,45092d72b3875b9fc1b321df0d2dc161,PennController,17,0,click-animals-words-trial,NULL,PennController,17,_Trial_,End,1617109426308,NULL
1617109509,45092d72b3875b9fc1b321df0d2dc161,PennController,18,0,enter-foods-words-trial,NULL,PennController,18,_Trial_,Start,1617109426314,NULL
1617109509,45092d72b3875b9fc1b321df0d2dc161,PennController,18,0,enter-foods-words-trial,NULL,PennController,18,_Header_,Start,1617109426314,NULL
1617109509,45092d72b3875b9fc1b321df0d2dc161,PennController,18,0,enter-foods-words-trial,NULL,PennController,18,_Header_,End,1617109426631,NULL
1617109509,45092d72b3875b9fc1b321df0d2dc161,PennController,18,0,enter-foods-words-trial,NULL,PennController,18,_Trial_,End,1617109439868,NULL
1617109509,45092d72b3875b9fc1b321df0d2dc161,PennController,19,0,click-occupations-words-trial,NULL,PennController,19,_Trial_,Start,1617109439870,NULL
1617109509,45092d72b3875b9fc1b321df0d2dc161,PennController,19,0,click-occupations-words-trial,NULL,PennController,19,_Header_,Start,1617109439870,NULL
1617109509,45092d72b3875b9fc1b321df0d2dc161,PennController,19,0,click-occupations-words-trial,NULL,PennController,19,_Header_,End,1617109440188,NULL
1617109509,45092d72b3875b9fc1b321df0d2dc161,PennController,19,0,click-occupations-words-trial,NULL,PennController,19,_Trial_,End,1617109464810,NULL
1617109509,45092d72b3875b9fc1b321df0d2dc161,PennController,20,0,enter-occupations-words-trial,NULL,PennController,20,_Trial_,Start,1617109464817,NULL
1617109509,45092d72b3875b9fc1b321df0d2dc161,PennController,20,0,enter-occupations-words-trial,NULL,PennController,20,_Header_,Start,1617109464817,NULL
1617109509,45092d72b3875b9fc1b321df0d2dc161,PennController,20,0,enter-occupations-words-trial,NULL,PennController,20,_Header_,End,1617109465134,NULL
1617109509,45092d72b3875b9fc1b321df0d2dc161,PennController,20,0,enter-occupations-words-trial,NULL,PennController,20,_Trial_,End,1617109479159,NULL
1617109509,45092d72b3875b9fc1b321df0d2dc161,PennController,21,0,click-clothing-words-trial,NULL,PennController,21,_Trial_,Start,1617109479161,NULL
1617109509,45092d72b3875b9fc1b321df0d2dc161,PennController,21,0,click-clothing-words-trial,NULL,PennController,21,_Header_,Start,1617109479161,NULL
1617109509,45092d72b3875b9fc1b321df0d2dc161,PennController,21,0,click-clothing-words-trial,NULL,PennController,21,_Header_,End,1617109479475,NULL
1617109509,45092d72b3875b9fc1b321df0d2dc161,PennController,21,0,click-clothing-words-trial,NULL,PennController,21,_Trial_,End,1617109494846,NULL
1617109509,45092d72b3875b9fc1b321df0d2dc161,PennController,22,0,enter-clothing-words-trial,NULL,PennController,22,_Trial_,Start,1617109494850,NULL
1617109509,45092d72b3875b9fc1b321df0d2dc161,PennController,22,0,enter-clothing-words-trial,NULL,PennController,22,_Header_,Start,1617109494850,NULL
1617109509,45092d72b3875b9fc1b321df0d2dc161,PennController,22,0,enter-clothing-words-trial,NULL,PennController,22,_Header_,End,1617109495165,NULL
1617109509,45092d72b3875b9fc1b321df0d2dc161,PennController,22,0,enter-clothing-words-trial,NULL,PennController,22,_Trial_,End,1617109508460,NULL
#
# Results on Tuesday March 30 2021 13:19:37 UTC
# USER AGENT: Mozilla/5.0 (Linux; Android 10; SAMSUNG SM-N960F) AppleWebKit/537.36 (KHTML, like Gecko) SamsungBrowser/13.2 Chrome/83.0.4103.106 Mobile Safari/537.36
# Design number was non-random = 1
#
# Columns below this comment are as follows:
# 1. Results reception time.
# 2. MD5 hash of participant's IP address.
# 3. Controller name.
# 4. Order number of item.
# 5. Inner element number.
# 6. Label.
# 7. Latin Square Group.
# 8. PennElementType.
# 9. PennElementName.
# 10. Parameter.
# 11. Value.
# 12. EventTime.
# 13. targetWords.
# 14. Comments.
1617110377,0ca7386f9060f70e122d6d25ae51c3a4,PennController,0,0,welcome,NULL,PennController,0,_Trial_,Start,1617109839783,vinegar corn cheese soup bread cereal penguin snail donkey dolphin sheep frog waiter nurse actor accountant trucker consultant gloves underwear scarf bikini skirt shorts,NULL
1617110377,0ca7386f9060f70e122d6d25ae51c3a4,PennController,0,0,welcome,NULL,PennController,0,_Header_,Start,1617109839783,vinegar corn cheese soup bread cereal penguin snail donkey dolphin sheep frog waiter nurse actor accountant trucker consultant gloves underwear scarf bikini skirt shorts,NULL
1617110377,0ca7386f9060f70e122d6d25ae51c3a4,PennController,0,0,welcome,NULL,PennController,0,_Header_,End,1617109840570,vinegar corn cheese soup bread cereal penguin snail donkey dolphin sheep frog waiter nurse actor accountant trucker consultant gloves underwear scarf bikini skirt shorts,NULL
1617110377,0ca7386f9060f70e122d6d25ae51c3a4,PennController,0,0,welcome,NULL,PennController,0,_Trial_,End,1617109845926,vinegar corn cheese soup bread cereal penguin snail donkey dolphin sheep frog waiter nurse actor accountant trucker consultant gloves underwear scarf bikini skirt shorts,NULL
# 13. Comments.
1617110377,0ca7386f9060f70e122d6d25ae51c3a4,PennController,1,0,demographics-age,NULL,PennController,1,_Trial_,Start,1617109845939,NULL
1617110377,0ca7386f9060f70e122d6d25ae51c3a4,PennController,1,0,demographics-age,NULL,PennController,1,_Header_,Start,1617109845939,NULL
1617110377,0ca7386f9060f70e122d6d25ae51c3a4,PennController,1,0,demographics-age,NULL,PennController,1,_Header_,End,1617109846240,NULL
1617110377,0ca7386f9060f70e122d6d25ae51c3a4,PennController,1,0,demographics-age,NULL,TextInput,age-input,Final,26,1617109849398,NULL
1617110377,0ca7386f9060f70e122d6d25ae51c3a4,PennController,1,0,demographics-age,NULL,PennController,1,_Trial_,End,1617109849399,NULL
1617110377,0ca7386f9060f70e122d6d25ae51c3a4,PennController,2,0,demographics-gender,NULL,PennController,2,_Trial_,Start,1617109849406,NULL
1617110377,0ca7386f9060f70e122d6d25ae51c3a4,PennController,2,0,demographics-gender,NULL,PennController,2,_Header_,Start,1617109849406,NULL
1617110377,0ca7386f9060f70e122d6d25ae51c3a4,PennController,2,0,demographics-gender,NULL,PennController,2,_Header_,End,1617109849708,NULL
1617110377,0ca7386f9060f70e122d6d25ae51c3a4,PennController,2,0,demographics-gender,NULL,Scale,gender,Choice,female,1617109851915,NULL
1617110377,0ca7386f9060f70e122d6d25ae51c3a4,PennController,2,0,demographics-gender,NULL,PennController,2,_Trial_,End,1617109851918,NULL
1617110377,0ca7386f9060f70e122d6d25ae51c3a4,PennController,3,0,demographics-bored,NULL,PennController,3,_Trial_,Start,1617109851923,NULL
1617110377,0ca7386f9060f70e122d6d25ae51c3a4,PennController,3,0,demographics-bored,NULL,PennController,3,_Header_,Start,1617109851923,NULL
1617110377,0ca7386f9060f70e122d6d25ae51c3a4,PennController,3,0,demographics-bored,NULL,PennController,3,_Header_,End,1617109852224,NULL
1617110377,0ca7386f9060f70e122d6d25ae51c3a4,PennController,3,0,demographics-bored,NULL,Scale,bored,Choice,Very True,1617109855884,NULL
1617110377,0ca7386f9060f70e122d6d25ae51c3a4,PennController,3,0,demographics-bored,NULL,PennController,3,_Trial_,End,1617109855887,NULL
1617110377,0ca7386f9060f70e122d6d25ae51c3a4,PennController,4,0,demographics-movies,NULL,PennController,4,_Trial_,Start,1617109855894,NULL
1617110377,0ca7386f9060f70e122d6d25ae51c3a4,PennController,4,0,demographics-movies,NULL,PennController,4,_Header_,Start,1617109855894,NULL
1617110377,0ca7386f9060f70e122d6d25ae51c3a4,PennController,4,0,demographics-movies,NULL,PennController,4,_Header_,End,1617109856194,NULL
1617110377,0ca7386f9060f70e122d6d25ae51c3a4,PennController,4,0,demographics-movies,NULL,Scale,movies,Choice,Untrue,1617109861285,NULL
1617110377,0ca7386f9060f70e122d6d25ae51c3a4,PennController,4,0,demographics-movies,NULL,PennController,4,_Trial_,End,1617109861288,NULL
1617110377,0ca7386f9060f70e122d6d25ae51c3a4,PennController,5,0,instructions-relaxation,NULL,PennController,5,_Trial_,Start,1617109861293,NULL
1617110377,0ca7386f9060f70e122d6d25ae51c3a4,PennController,5,0,instructions-relaxation,NULL,PennController,5,_Header_,Start,1617109861293,NULL
1617110377,0ca7386f9060f70e122d6d25ae51c3a4,PennController,5,0,instructions-relaxation,NULL,PennController,5,_Header_,End,1617109861595,NULL
1617110377,0ca7386f9060f70e122d6d25ae51c3a4,PennController,5,0,instructions-relaxation,NULL,PennController,5,_Trial_,End,1617109864453,NULL
1617110377,0ca7386f9060f70e122d6d25ae51c3a4,PennController,6,0,instructions-show-words,NULL,PennController,6,_Trial_,Start,1617109864459,NULL
1617110377,0ca7386f9060f70e122d6d25ae51c3a4,PennController,6,0,instructions-show-words,NULL,PennController,6,_Header_,Start,1617109864459,NULL
1617110377,0ca7386f9060f70e122d6d25ae51c3a4,PennController,6,0,instructions-show-words,NULL,PennController,6,_Header_,End,1617109864761,NULL
1617110377,0ca7386f9060f70e122d6d25ae51c3a4,PennController,6,0,instructions-show-words,NULL,PennController,6,_Trial_,End,1617109872917,NULL
1617110377,0ca7386f9060f70e122d6d25ae51c3a4,PennController,7,0,show-all-words-trial,NULL,PennController,7,_Trial_,Start,1617109872922,NULL
1617110377,0ca7386f9060f70e122d6d25ae51c3a4,PennController,7,0,show-all-words-trial,NULL,PennController,7,_Header_,Start,1617109872922,NULL
1617110377,0ca7386f9060f70e122d6d25ae51c3a4,PennController,7,0,show-all-words-trial,NULL,PennController,7,_Header_,End,1617109873225,NULL
1617110377,0ca7386f9060f70e122d6d25ae51c3a4,PennController,7,0,show-all-words-trial,NULL,PennController,7,_Trial_,End,1617110022707,NULL
1617110377,0ca7386f9060f70e122d6d25ae51c3a4,PennController,8,0,recall-trial,NULL,PennController,8,_Trial_,Start,1617110022717,NULL
1617110377,0ca7386f9060f70e122d6d25ae51c3a4,PennController,8,0,recall-trial,NULL,PennController,8,_Header_,Start,1617110022717,NULL
1617110377,0ca7386f9060f70e122d6d25ae51c3a4,PennController,8,0,recall-trial,NULL,PennController,8,_Header_,End,1617110023019,NULL
1617110377,0ca7386f9060f70e122d6d25ae51c3a4,PennController,8,0,recall-trial,NULL,Html,recall,recall_1,Bikini,1617110091810,text input
1617110377,0ca7386f9060f70e122d6d25ae51c3a4,PennController,8,0,recall-trial,NULL,Html,recall,recall_2,Panda,1617110091810,text input
1617110377,0ca7386f9060f70e122d6d25ae51c3a4,PennController,8,0,recall-trial,NULL,Html,recall,recall_3,,1617110091810,text input
1617110377,0ca7386f9060f70e122d6d25ae51c3a4,PennController,8,0,recall-trial,NULL,Html,recall,recall_4,,1617110091811,text input
1617110377,0ca7386f9060f70e122d6d25ae51c3a4,PennController,8,0,recall-trial,NULL,Html,recall,recall_5,,1617110091811,text input
1617110377,0ca7386f9060f70e122d6d25ae51c3a4,PennController,8,0,recall-trial,NULL,Html,recall,recall_6,,1617110091811,text input
1617110377,0ca7386f9060f70e122d6d25ae51c3a4,PennController,8,0,recall-trial,NULL,Html,recall,recall_7,,1617110091811,text input
1617110377,0ca7386f9060f70e122d6d25ae51c3a4,PennController,8,0,recall-trial,NULL,Html,recall,recall_8,,1617110091811,text input
1617110377,0ca7386f9060f70e122d6d25ae51c3a4,PennController,8,0,recall-trial,NULL,Html,recall,recall_9,,1617110091812,text input
1617110377,0ca7386f9060f70e122d6d25ae51c3a4,PennController,8,0,recall-trial,NULL,Html,recall,recall_10,,1617110091813,text input
1617110377,0ca7386f9060f70e122d6d25ae51c3a4,PennController,8,0,recall-trial,NULL,Html,recall,recall_11,,1617110091813,text input
1617110377,0ca7386f9060f70e122d6d25ae51c3a4,PennController,8,0,recall-trial,NULL,Html,recall,recall_12,,1617110091813,text input
1617110377,0ca7386f9060f70e122d6d25ae51c3a4,PennController,8,0,recall-trial,NULL,Html,recall,recall_13,,1617110091813,text input
1617110377,0ca7386f9060f70e122d6d25ae51c3a4,PennController,8,0,recall-trial,NULL,Html,recall,recall_14,,1617110091814,text input
1617110377,0ca7386f9060f70e122d6d25ae51c3a4,PennController,8,0,recall-trial,NULL,Html,recall,recall_15,,1617110091814,text input
1617110377,0ca7386f9060f70e122d6d25ae51c3a4,PennController,8,0,recall-trial,NULL,Html,recall,recall_16,,1617110091814,text input
1617110377,0ca7386f9060f70e122d6d25ae51c3a4,PennController,8,0,recall-trial,NULL,Html,recall,recall_17,,1617110091814,text input
1617110377,0ca7386f9060f70e122d6d25ae51c3a4,PennController,8,0,recall-trial,NULL,Html,recall,recall_18,,1617110091814,text input
1617110377,0ca7386f9060f70e122d6d25ae51c3a4,PennController,8,0,recall-trial,NULL,Html,recall,recall_19,,1617110091814,text input
1617110377,0ca7386f9060f70e122d6d25ae51c3a4,PennController,8,0,recall-trial,NULL,Html,recall,recall_20,,1617110091814,text input
1617110377,0ca7386f9060f70e122d6d25ae51c3a4,PennController,8,0,recall-trial,NULL,Html,recall,recall_21,,1617110091815,text input
1617110377,0ca7386f9060f70e122d6d25ae51c3a4,PennController,8,0,recall-trial,NULL,Html,recall,recall_22,,1617110091815,text input
1617110377,0ca7386f9060f70e122d6d25ae51c3a4,PennController,8,0,recall-trial,NULL,Html,recall,recall_23,,1617110091815,text input
1617110377,0ca7386f9060f70e122d6d25ae51c3a4,PennController,8,0,recall-trial,NULL,Html,recall,recall_24,,1617110091815,text input
1617110377,0ca7386f9060f70e122d6d25ae51c3a4,PennController,8,0,recall-trial,NULL,Html,recall,recall_25,,1617110091815,text input
1617110377,0ca7386f9060f70e122d6d25ae51c3a4,PennController,8,0,recall-trial,NULL,Html,recall,recall_26,,1617110091815,text input
1617110377,0ca7386f9060f70e122d6d25ae51c3a4,PennController,8,0,recall-trial,NULL,Html,recall,recall_27,,1617110091816,text input
1617110377,0ca7386f9060f70e122d6d25ae51c3a4,PennController,8,0,recall-trial,NULL,Html,recall,recall_28,,1617110091816,text input
1617110377,0ca7386f9060f70e122d6d25ae51c3a4,PennController,8,0,recall-trial,NULL,Html,recall,recall_29,,1617110091816,text input
1617110377,0ca7386f9060f70e122d6d25ae51c3a4,PennController,8,0,recall-trial,NULL,Html,recall,recall_30,,1617110091816,text input
1617110377,0ca7386f9060f70e122d6d25ae51c3a4,PennController,8,0,recall-trial,NULL,Html,recall,recall_31,,1617110091816,text input
1617110377,0ca7386f9060f70e122d6d25ae51c3a4,PennController,8,0,recall-trial,NULL,Html,recall,recall_32,,1617110091816,text input
1617110377,0ca7386f9060f70e122d6d25ae51c3a4,PennController,8,0,recall-trial,NULL,Html,recall,recall_33,,1617110091817,text input
1617110377,0ca7386f9060f70e122d6d25ae51c3a4,PennController,8,0,recall-trial,NULL,Html,recall,recall_34,,1617110091817,text input
1617110377,0ca7386f9060f70e122d6d25ae51c3a4,PennController,8,0,recall-trial,NULL,Html,recall,recall_35,,1617110091817,text input
1617110377,0ca7386f9060f70e122d6d25ae51c3a4,PennController,8,0,recall-trial,NULL,Html,recall,recall_36,,1617110091817,text input
1617110377,0ca7386f9060f70e122d6d25ae51c3a4,PennController,8,0,recall-trial,NULL,Html,recall,recall_37,,1617110091817,text input
1617110377,0ca7386f9060f70e122d6d25ae51c3a4,PennController,8,0,recall-trial,NULL,Html,recall,recall_38,,1617110091817,text input
1617110377,0ca7386f9060f70e122d6d25ae51c3a4,PennController,8,0,recall-trial,NULL,Html,recall,recall_39,,1617110091817,text input
1617110377,0ca7386f9060f70e122d6d25ae51c3a4,PennController,8,0,recall-trial,NULL,Html,recall,recall_40,,1617110091818,text input
1617110377,0ca7386f9060f70e122d6d25ae51c3a4,PennController,8,0,recall-trial,NULL,Html,recall,recall_42,,1617110091818,text input
1617110377,0ca7386f9060f70e122d6d25ae51c3a4,PennController,8,0,recall-trial,NULL,Html,recall,recall_43,,1617110091818,text input
1617110377,0ca7386f9060f70e122d6d25ae51c3a4,PennController,8,0,recall-trial,NULL,Html,recall,recall_44,,1617110091818,text input
1617110377,0ca7386f9060f70e122d6d25ae51c3a4,PennController,8,0,recall-trial,NULL,Html,recall,recall_45,,1617110091818,text input
1617110377,0ca7386f9060f70e122d6d25ae51c3a4,PennController,8,0,recall-trial,NULL,Html,recall,recall_46,,1617110091818,text input
1617110377,0ca7386f9060f70e122d6d25ae51c3a4,PennController,8,0,recall-trial,NULL,Html,recall,recall_47,,1617110091818,text input
1617110377,0ca7386f9060f70e122d6d25ae51c3a4,PennController,8,0,recall-trial,NULL,Html,recall,recall_48,,1617110091819,text input
1617110377,0ca7386f9060f70e122d6d25ae51c3a4,PennController,8,0,recall-trial,NULL,PennController,8,_Trial_,End,1617110091822,NULL
1617110377,0ca7386f9060f70e122d6d25ae51c3a4,PennController,9,0,instructions-training-1,NULL,PennController,9,_Trial_,Start,1617110091857,NULL
1617110377,0ca7386f9060f70e122d6d25ae51c3a4,PennController,9,0,instructions-training-1,NULL,PennController,9,_Header_,Start,1617110091857,NULL
1617110377,0ca7386f9060f70e122d6d25ae51c3a4,PennController,9,0,instructions-training-1,NULL,PennController,9,_Header_,End,1617110092165,NULL
1617110377,0ca7386f9060f70e122d6d25ae51c3a4,PennController,9,0,instructions-training-1,NULL,PennController,9,_Trial_,End,1617110099402,NULL
1617110377,0ca7386f9060f70e122d6d25ae51c3a4,PennController,10,0,show-foods-words-trial,NULL,PennController,10,_Trial_,Start,1617110099407,NULL
1617110377,0ca7386f9060f70e122d6d25ae51c3a4,PennController,10,0,show-foods-words-trial,NULL,PennController,10,_Header_,Start,1617110099407,NULL
1617110377,0ca7386f9060f70e122d6d25ae51c3a4,PennController,10,0,show-foods-words-trial,NULL,PennController,10,_Header_,End,1617110099711,NULL
1617110377,0ca7386f9060f70e122d6d25ae51c3a4,PennController,10,0,show-foods-words-trial,NULL,PennController,10,_Trial_,End,1617110118427,NULL
1617110377,0ca7386f9060f70e122d6d25ae51c3a4,PennController,11,0,show-animals-words-trial,NULL,PennController,11,_Trial_,Start,1617110118442,NULL
1617110377,0ca7386f9060f70e122d6d25ae51c3a4,PennController,11,0,show-animals-words-trial,NULL,PennController,11,_Header_,Start,1617110118442,NULL
1617110377,0ca7386f9060f70e122d6d25ae51c3a4,PennController,11,0,show-animals-words-trial,NULL,PennController,11,_Header_,End,1617110118746,NULL
1617110377,0ca7386f9060f70e122d6d25ae51c3a4,PennController,11,0,show-animals-words-trial,NULL,PennController,11,_Trial_,End,1617110137454,NULL
1617110377,0ca7386f9060f70e122d6d25ae51c3a4,PennController,12,0,show-occupations-words-trial,NULL,PennController,12,_Trial_,Start,1617110137466,NULL
1617110377,0ca7386f9060f70e122d6d25ae51c3a4,PennController,12,0,show-occupations-words-trial,NULL,PennController,12,_Header_,Start,1617110137466,NULL
1617110377,0ca7386f9060f70e122d6d25ae51c3a4,PennController,12,0,show-occupations-words-trial,NULL,PennController,12,_Header_,End,1617110137771,NULL
1617110377,0ca7386f9060f70e122d6d25ae51c3a4,PennController,12,0,show-occupations-words-trial,NULL,PennController,12,_Trial_,End,1617110156475,NULL
1617110377,0ca7386f9060f70e122d6d25ae51c3a4,PennController,13,0,show-clothing-words-trial,NULL,PennController,13,_Trial_,Start,1617110156490,NULL
1617110377,0ca7386f9060f70e122d6d25ae51c3a4,PennController,13,0,show-clothing-words-trial,NULL,PennController,13,_Header_,Start,1617110156491,NULL
1617110377,0ca7386f9060f70e122d6d25ae51c3a4,PennController,13,0,show-clothing-words-trial,NULL,PennController,13,_Header_,End,1617110156795,NULL
1617110377,0ca7386f9060f70e122d6d25ae51c3a4,PennController,13,0,show-clothing-words-trial,NULL,PennController,13,_Trial_,End,1617110175494,NULL
1617110377,0ca7386f9060f70e122d6d25ae51c3a4,PennController,14,0,instructions-training-2,NULL,PennController,14,_Trial_,Start,1617110175505,NULL
1617110377,0ca7386f9060f70e122d6d25ae51c3a4,PennController,14,0,instructions-training-2,NULL,PennController,14,_Header_,Start,1617110175505,NULL
1617110377,0ca7386f9060f70e122d6d25ae51c3a4,PennController,14,0,instructions-training-2,NULL,PennController,14,_Header_,End,1617110175809,NULL
1617110377,0ca7386f9060f70e122d6d25ae51c3a4,PennController,14,0,instructions-training-2,NULL,PennController,14,_Trial_,End,1617110179749,NULL
1617110377,0ca7386f9060f70e122d6d25ae51c3a4,PennController,15,0,click-foods-words-trial,NULL,PennController,15,_Trial_,Start,1617110179754,NULL
1617110377,0ca7386f9060f70e122d6d25ae51c3a4,PennController,15,0,click-foods-words-trial,NULL,PennController,15,_Header_,Start,1617110179754,NULL
1617110377,0ca7386f9060f70e122d6d25ae51c3a4,PennController,15,0,click-foods-words-trial,NULL,PennController,15,_Header_,End,1617110180057,NULL
1617110377,0ca7386f9060f70e122d6d25ae51c3a4,PennController,15,0,click-foods-words-trial,NULL,PennController,15,_Trial_,End,1617110201675,NULL
1617110377,0ca7386f9060f70e122d6d25ae51c3a4,PennController,16,0,enter-foods-words-trial,NULL,PennController,16,_Trial_,Start,1617110201682,NULL
1617110377,0ca7386f9060f70e122d6d25ae51c3a4,PennController,16,0,enter-foods-words-trial,NULL,PennController,16,_Header_,Start,1617110201682,NULL
1617110377,0ca7386f9060f70e122d6d25ae51c3a4,PennController,16,0,enter-foods-words-trial,NULL,PennController,16,_Header_,End,1617110201985,NULL
1617110377,0ca7386f9060f70e122d6d25ae51c3a4,PennController,16,0,enter-foods-words-trial,NULL,PennController,16,_Trial_,End,1617110238396,NULL
1617110377,0ca7386f9060f70e122d6d25ae51c3a4,PennController,17,0,click-animals-words-trial,NULL,PennController,17,_Trial_,Start,1617110238403,NULL
1617110377,0ca7386f9060f70e122d6d25ae51c3a4,PennController,17,0,click-animals-words-trial,NULL,PennController,17,_Header_,Start,1617110238403,NULL
1617110377,0ca7386f9060f70e122d6d25ae51c3a4,PennController,17,0,click-animals-words-trial,NULL,PennController,17,_Header_,End,1617110238706,NULL
1617110377,0ca7386f9060f70e122d6d25ae51c3a4,PennController,17,0,click-animals-words-trial,NULL,PennController,17,_Trial_,End,1617110254758,NULL
1617110377,0ca7386f9060f70e122d6d25ae51c3a4,PennController,18,0,enter-foods-words-trial,NULL,PennController,18,_Trial_,Start,1617110254765,NULL
1617110377,0ca7386f9060f70e122d6d25ae51c3a4,PennController,18,0,enter-foods-words-trial,NULL,PennController,18,_Header_,Start,1617110254765,NULL
1617110377,0ca7386f9060f70e122d6d25ae51c3a4,PennController,18,0,enter-foods-words-trial,NULL,PennController,18,_Header_,End,1617110255071,NULL
1617110377,0ca7386f9060f70e122d6d25ae51c3a4,PennController,18,0,enter-foods-words-trial,NULL,PennController,18,_Trial_,End,1617110284158,NULL
1617110377,0ca7386f9060f70e122d6d25ae51c3a4,PennController,19,0,click-occupations-words-trial,NULL,PennController,19,_Trial_,Start,1617110284166,NULL
1617110377,0ca7386f9060f70e122d6d25ae51c3a4,PennController,19,0,click-occupations-words-trial,NULL,PennController,19,_Header_,Start,1617110284166,NULL
1617110377,0ca7386f9060f70e122d6d25ae51c3a4,PennController,19,0,click-occupations-words-trial,NULL,PennController,19,_Header_,End,1617110284468,NULL
1617110377,0ca7386f9060f70e122d6d25ae51c3a4,PennController,19,0,click-occupations-words-trial,NULL,PennController,19,_Trial_,End,1617110298966,NULL
1617110377,0ca7386f9060f70e122d6d25ae51c3a4,PennController,20,0,enter-occupations-words-trial,NULL,PennController,20,_Trial_,Start,1617110298968,NULL
1617110377,0ca7386f9060f70e122d6d25ae51c3a4,PennController,20,0,enter-occupations-words-trial,NULL,PennController,20,_Header_,Start,1617110298968,NULL
1617110377,0ca7386f9060f70e122d6d25ae51c3a4,PennController,20,0,enter-occupations-words-trial,NULL,PennController,20,_Header_,End,1617110299270,NULL
1617110377,0ca7386f9060f70e122d6d25ae51c3a4,PennController,20,0,enter-occupations-words-trial,NULL,PennController,20,_Trial_,End,1617110335759,NULL
1617110377,0ca7386f9060f70e122d6d25ae51c3a4,PennController,21,0,click-clothing-words-trial,NULL,PennController,21,_Trial_,Start,1617110335766,NULL
1617110377,0ca7386f9060f70e122d6d25ae51c3a4,PennController,21,0,click-clothing-words-trial,NULL,PennController,21,_Header_,Start,1617110335766,NULL
1617110377,0ca7386f9060f70e122d6d25ae51c3a4,PennController,21,0,click-clothing-words-trial,NULL,PennController,21,_Header_,End,1617110336067,NULL
1617110377,0ca7386f9060f70e122d6d25ae51c3a4,PennController,21,0,click-clothing-words-trial,NULL,PennController,21,_Trial_,End,1617110347898,NULL
1617110377,0ca7386f9060f70e122d6d25ae51c3a4,PennController,22,0,enter-clothing-words-trial,NULL,PennController,22,_Trial_,Start,1617110347900,NULL
1617110377,0ca7386f9060f70e122d6d25ae51c3a4,PennController,22,0,enter-clothing-words-trial,NULL,PennController,22,_Header_,Start,1617110347900,NULL
1617110377,0ca7386f9060f70e122d6d25ae51c3a4,PennController,22,0,enter-clothing-words-trial,NULL,PennController,22,_Header_,End,1617110348204,NULL
1617110377,0ca7386f9060f70e122d6d25ae51c3a4,PennController,22,0,enter-clothing-words-trial,NULL,PennController,22,_Trial_,End,1617110376788,NULL
#
# Results on Tuesday March 30 2021 16:54:28 UTC
# USER AGENT: Mozilla/5.0 (iPhone; CPU iPhone OS 14_4_2 like Mac OS X) AppleWebKit/605.1.15 (KHTML, like Gecko) Version/14.0.3 Mobile/15E148 Safari/604.1
# Design number was non-random = 2
#
# Columns below this comment are as follows:
# 1. Results reception time.
# 2. MD5 hash of participant's IP address.
# 3. Controller name.
# 4. Order number of item.
# 5. Inner element number.
# 6. Label.
# 7. Latin Square Group.
# 8. PennElementType.
# 9. PennElementName.
# 10. Parameter.
# 11. Value.
# 12. EventTime.
# 13. targetWords.
# 14. Comments.
1617123268,62e9444de53d6f554eebcc15f397a0c9,PennController,0,0,welcome,NULL,PennController,0,_Header_,Start,1617121598055,soup cheese salad lemon tofu bread hamster penguin snake panda bee dolphin cleaner dentist tailor waiter politician trucker scarf coat underwear gloves skirt jeans,NULL
1617123268,62e9444de53d6f554eebcc15f397a0c9,PennController,0,0,welcome,NULL,PennController,0,_Trial_,Start,1617121598055,soup cheese salad lemon tofu bread hamster penguin snake panda bee dolphin cleaner dentist tailor waiter politician trucker scarf coat underwear gloves skirt jeans,NULL
1617123268,62e9444de53d6f554eebcc15f397a0c9,PennController,0,0,welcome,NULL,PennController,0,_Header_,End,1617121598359,soup cheese salad lemon tofu bread hamster penguin snake panda bee dolphin cleaner dentist tailor waiter politician trucker scarf coat underwear gloves skirt jeans,NULL
1617123268,62e9444de53d6f554eebcc15f397a0c9,PennController,0,0,welcome,NULL,PennController,0,_Trial_,End,1617121666654,soup cheese salad lemon tofu bread hamster penguin snake panda bee dolphin cleaner dentist tailor waiter politician trucker scarf coat underwear gloves skirt jeans,NULL
# 13. Comments.
1617123268,62e9444de53d6f554eebcc15f397a0c9,PennController,1,0,demographics-age,NULL,PennController,1,_Header_,Start,1617121666659,NULL
1617123268,62e9444de53d6f554eebcc15f397a0c9,PennController,1,0,demographics-age,NULL,PennController,1,_Trial_,Start,1617121666659,NULL
1617123268,62e9444de53d6f554eebcc15f397a0c9,PennController,1,0,demographics-age,NULL,PennController,1,_Header_,End,1617121666964,NULL
1617123268,62e9444de53d6f554eebcc15f397a0c9,PennController,1,0,demographics-age,NULL,PennController,1,_Trial_,End,1617121693247,NULL
1617123268,62e9444de53d6f554eebcc15f397a0c9,PennController,1,0,demographics-age,NULL,TextInput,age-input,Final,56,1617121693247,NULL
1617123268,62e9444de53d6f554eebcc15f397a0c9,PennController,2,0,demographics-gender,NULL,PennController,2,_Header_,Start,1617121693250,NULL
1617123268,62e9444de53d6f554eebcc15f397a0c9,PennController,2,0,demographics-gender,NULL,PennController,2,_Trial_,Start,1617121693250,NULL
1617123268,62e9444de53d6f554eebcc15f397a0c9,PennController,2,0,demographics-gender,NULL,PennController,2,_Header_,End,1617121693551,NULL
1617123268,62e9444de53d6f554eebcc15f397a0c9,PennController,2,0,demographics-gender,NULL,Scale,gender,Choice,female,1617121700307,NULL
1617123268,62e9444de53d6f554eebcc15f397a0c9,PennController,2,0,demographics-gender,NULL,PennController,2,_Trial_,End,1617121700311,NULL
1617123268,62e9444de53d6f554eebcc15f397a0c9,PennController,3,0,demographics-bored,NULL,PennController,3,_Header_,Start,1617121700316,NULL
1617123268,62e9444de53d6f554eebcc15f397a0c9,PennController,3,0,demographics-bored,NULL,PennController,3,_Trial_,Start,1617121700316,NULL
1617123268,62e9444de53d6f554eebcc15f397a0c9,PennController,3,0,demographics-bored,NULL,PennController,3,_Header_,End,1617121700617,NULL
1617123268,62e9444de53d6f554eebcc15f397a0c9,PennController,3,0,demographics-bored,NULL,Scale,bored,Choice,Untrue,1617121726638,NULL
1617123268,62e9444de53d6f554eebcc15f397a0c9,PennController,3,0,demographics-bored,NULL,PennController,3,_Trial_,End,1617121726642,NULL
1617123268,62e9444de53d6f554eebcc15f397a0c9,PennController,4,0,demographics-movies,NULL,PennController,4,_Header_,Start,1617121726649,NULL
1617123268,62e9444de53d6f554eebcc15f397a0c9,PennController,4,0,demographics-movies,NULL,PennController,4,_Trial_,Start,1617121726649,NULL
1617123268,62e9444de53d6f554eebcc15f397a0c9,PennController,4,0,demographics-movies,NULL,PennController,4,_Header_,End,1617121726950,NULL
1617123268,62e9444de53d6f554eebcc15f397a0c9,PennController,4,0,demographics-movies,NULL,Scale,movies,Choice,Neutral,1617121756639,NULL
1617123268,62e9444de53d6f554eebcc15f397a0c9,PennController,4,0,demographics-movies,NULL,PennController,4,_Trial_,End,1617121756642,NULL
1617123268,62e9444de53d6f554eebcc15f397a0c9,PennController,5,0,instructions-relaxation,NULL,PennController,5,_Header_,Start,1617121756649,NULL
1617123268,62e9444de53d6f554eebcc15f397a0c9,PennController,5,0,instructions-relaxation,NULL,PennController,5,_Trial_,Start,1617121756649,NULL
1617123268,62e9444de53d6f554eebcc15f397a0c9,PennController,5,0,instructions-relaxation,NULL,PennController,5,_Header_,End,1617121756951,NULL
1617123268,62e9444de53d6f554eebcc15f397a0c9,PennController,5,0,instructions-relaxation,NULL,PennController,5,_Trial_,End,1617121808254,NULL
1617123268,62e9444de53d6f554eebcc15f397a0c9,PennController,6,0,instructions-show-words,NULL,PennController,6,_Header_,Start,1617121808270,NULL
1617123268,62e9444de53d6f554eebcc15f397a0c9,PennController,6,0,instructions-show-words,NULL,PennController,6,_Trial_,Start,1617121808270,NULL
1617123268,62e9444de53d6f554eebcc15f397a0c9,PennController,6,0,instructions-show-words,NULL,PennController,6,_Header_,End,1617121808574,NULL
1617123268,62e9444de53d6f554eebcc15f397a0c9,PennController,6,0,instructions-show-words,NULL,PennController,6,_Trial_,End,1617121845583,NULL
1617123268,62e9444de53d6f554eebcc15f397a0c9,PennController,7,0,show-all-words-trial,NULL,PennController,7,_Header_,Start,1617121845591,NULL
1617123268,62e9444de53d6f554eebcc15f397a0c9,PennController,7,0,show-all-words-trial,NULL,PennController,7,_Trial_,Start,1617121845591,NULL
1617123268,62e9444de53d6f554eebcc15f397a0c9,PennController,7,0,show-all-words-trial,NULL,PennController,7,_Header_,End,1617121845892,NULL
1617123268,62e9444de53d6f554eebcc15f397a0c9,PennController,7,0,show-all-words-trial,NULL,PennController,7,_Trial_,End,1617121995093,NULL
1617123268,62e9444de53d6f554eebcc15f397a0c9,PennController,8,0,recall-trial,NULL,PennController,8,_Header_,Start,1617121995098,NULL
1617123268,62e9444de53d6f554eebcc15f397a0c9,PennController,8,0,recall-trial,NULL,PennController,8,_Trial_,Start,1617121995098,NULL
1617123268,62e9444de53d6f554eebcc15f397a0c9,PennController,8,0,recall-trial,NULL,PennController,8,_Header_,End,1617121995401,NULL
1617123268,62e9444de53d6f554eebcc15f397a0c9,PennController,8,0,recall-trial,NULL,Html,recall,recall_5,Lemon,1617122341908,text input
1617123268,62e9444de53d6f554eebcc15f397a0c9,PennController,8,0,recall-trial,NULL,Html,recall,recall_4,Penguin,1617122341908,text input
1617123268,62e9444de53d6f554eebcc15f397a0c9,PennController,8,0,recall-trial,NULL,Html,recall,recall_3,Accountant,1617122341908,text input
1617123268,62e9444de53d6f554eebcc15f397a0c9,PennController,8,0,recall-trial,NULL,Html,recall,recall_2,Skirt,1617122341908,text input
1617123268,62e9444de53d6f554eebcc15f397a0c9,PennController,8,0,recall-trial,NULL,Html,recall,recall_1,Socks,1617122341908,text input
1617123268,62e9444de53d6f554eebcc15f397a0c9,PennController,8,0,recall-trial,NULL,Html,recall,recall_12,Coat,1617122341909,text input
1617123268,62e9444de53d6f554eebcc15f397a0c9,PennController,8,0,recall-trial,NULL,Html,recall,recall_11,Parka,1617122341909,text input
1617123268,62e9444de53d6f554eebcc15f397a0c9,PennController,8,0,recall-trial,NULL,Html,recall,recall_10,Scarf,1617122341909,text input
1617123268,62e9444de53d6f554eebcc15f397a0c9,PennController,8,0,recall-trial,NULL,Html,recall,recall_9,Elephant ,1617122341909,text input
1617123268,62e9444de53d6f554eebcc15f397a0c9,PennController,8,0,recall-trial,NULL,Html,recall,recall_8,Dentist,1617122341909,text input
1617123268,62e9444de53d6f554eebcc15f397a0c9,PennController,8,0,recall-trial,NULL,Html,recall,recall_7,Snake,1617122341909,text input
1617123268,62e9444de53d6f554eebcc15f397a0c9,PennController,8,0,recall-trial,NULL,Html,recall,recall_6,Tofu,1617122341909,text input
1617123268,62e9444de53d6f554eebcc15f397a0c9,PennController,8,0,recall-trial,NULL,Html,recall,recall_25,,1617122341910,text input
1617123268,62e9444de53d6f554eebcc15f397a0c9,PennController,8,0,recall-trial,NULL,Html,recall,recall_24,,1617122341910,text input
1617123268,62e9444de53d6f554eebcc15f397a0c9,PennController,8,0,recall-trial,NULL,Html,recall,recall_23,,1617122341910,text input
1617123268,62e9444de53d6f554eebcc15f397a0c9,PennController,8,0,recall-trial,NULL,Html,recall,recall_22,,1617122341910,text input
1617123268,62e9444de53d6f554eebcc15f397a0c9,PennController,8,0,recall-trial,NULL,Html,recall,recall_21,,1617122341910,text input
1617123268,62e9444de53d6f554eebcc15f397a0c9,PennController,8,0,recall-trial,NULL,Html,recall,recall_20,,1617122341910,text input
1617123268,62e9444de53d6f554eebcc15f397a0c9,PennController,8,0,recall-trial,NULL,Html,recall,recall_19,,1617122341910,text input
1617123268,62e9444de53d6f554eebcc15f397a0c9,PennController,8,0,recall-trial,NULL,Html,recall,recall_18,,1617122341910,text input
1617123268,62e9444de53d6f554eebcc15f397a0c9,PennController,8,0,recall-trial,NULL,Html,recall,recall_17,,1617122341910,text input
1617123268,62e9444de53d6f554eebcc15f397a0c9,PennController,8,0,recall-trial,NULL,Html,recall,recall_16,,1617122341910,text input
1617123268,62e9444de53d6f554eebcc15f397a0c9,PennController,8,0,recall-trial,NULL,Html,recall,recall_15,Consultant,1617122341910,text input
1617123268,62e9444de53d6f554eebcc15f397a0c9,PennController,8,0,recall-trial,NULL,Html,recall,recall_14,Herbs,1617122341910,text input
1617123268,62e9444de53d6f554eebcc15f397a0c9,PennController,8,0,recall-trial,NULL,Html,recall,recall_13,Waiter,1617122341910,text input
1617123268,62e9444de53d6f554eebcc15f397a0c9,PennController,8,0,recall-trial,NULL,Html,recall,recall_48,,1617122341911,text input
1617123268,62e9444de53d6f554eebcc15f397a0c9,PennController,8,0,recall-trial,NULL,Html,recall,recall_47,,1617122341911,text input
1617123268,62e9444de53d6f554eebcc15f397a0c9,PennController,8,0,recall-trial,NULL,Html,recall,recall_46,,1617122341911,text input
1617123268,62e9444de53d6f554eebcc15f397a0c9,PennController,8,0,recall-trial,NULL,Html,recall,recall_45,,1617122341911,text input
1617123268,62e9444de53d6f554eebcc15f397a0c9,PennController,8,0,recall-trial,NULL,Html,recall,recall_44,,1617122341911,text input
1617123268,62e9444de53d6f554eebcc15f397a0c9,PennController,8,0,recall-trial,NULL,Html,recall,recall_43,,1617122341911,text input
1617123268,62e9444de53d6f554eebcc15f397a0c9,PennController,8,0,recall-trial,NULL,Html,recall,recall_42,,1617122341911,text input
1617123268,62e9444de53d6f554eebcc15f397a0c9,PennController,8,0,recall-trial,NULL,Html,recall,recall_40,,1617122341911,text input
1617123268,62e9444de53d6f554eebcc15f397a0c9,PennController,8,0,recall-trial,NULL,Html,recall,recall_39,,1617122341911,text input
1617123268,62e9444de53d6f554eebcc15f397a0c9,PennController,8,0,recall-trial,NULL,Html,recall,recall_38,,1617122341911,text input
1617123268,62e9444de53d6f554eebcc15f397a0c9,PennController,8,0,recall-trial,NULL,Html,recall,recall_37,,1617122341911,text input
1617123268,62e9444de53d6f554eebcc15f397a0c9,PennController,8,0,recall-trial,NULL,Html,recall,recall_36,,1617122341911,text input
1617123268,62e9444de53d6f554eebcc15f397a0c9,PennController,8,0,recall-trial,NULL,Html,recall,recall_35,,1617122341911,text input
1617123268,62e9444de53d6f554eebcc15f397a0c9,PennController,8,0,recall-trial,NULL,Html,recall,recall_34,,1617122341911,text input
1617123268,62e9444de53d6f554eebcc15f397a0c9,PennController,8,0,recall-trial,NULL,Html,recall,recall_33,,1617122341911,text input
1617123268,62e9444de53d6f554eebcc15f397a0c9,PennController,8,0,recall-trial,NULL,Html,recall,recall_32,,1617122341911,text input
1617123268,62e9444de53d6f554eebcc15f397a0c9,PennController,8,0,recall-trial,NULL,Html,recall,recall_31,,1617122341911,text input
1617123268,62e9444de53d6f554eebcc15f397a0c9,PennController,8,0,recall-trial,NULL,Html,recall,recall_30,,1617122341911,text input
1617123268,62e9444de53d6f554eebcc15f397a0c9,PennController,8,0,recall-trial,NULL,Html,recall,recall_29,,1617122341911,text input
1617123268,62e9444de53d6f554eebcc15f397a0c9,PennController,8,0,recall-trial,NULL,Html,recall,recall_28,,1617122341911,text input
1617123268,62e9444de53d6f554eebcc15f397a0c9,PennController,8,0,recall-trial,NULL,Html,recall,recall_27,,1617122341911,text input
1617123268,62e9444de53d6f554eebcc15f397a0c9,PennController,8,0,recall-trial,NULL,Html,recall,recall_26,,1617122341911,text input
1617123268,62e9444de53d6f554eebcc15f397a0c9,PennController,8,0,recall-trial,NULL,PennController,8,_Trial_,End,1617122341912,NULL
1617123268,62e9444de53d6f554eebcc15f397a0c9,PennController,9,0,instructions-training-1,NULL,PennController,9,_Header_,Start,1617122341919,NULL
1617123268,62e9444de53d6f554eebcc15f397a0c9,PennController,9,0,instructions-training-1,NULL,PennController,9,_Trial_,Start,1617122341919,NULL
1617123268,62e9444de53d6f554eebcc15f397a0c9,PennController,9,0,instructions-training-1,NULL,PennController,9,_Header_,End,1617122342224,NULL
1617123268,62e9444de53d6f554eebcc15f397a0c9,PennController,9,0,instructions-training-1,NULL,PennController,9,_Trial_,End,1617122371404,NULL
1617123268,62e9444de53d6f554eebcc15f397a0c9,PennController,10,0,show-foods-words-trial,NULL,PennController,10,_Header_,Start,1617122371410,NULL
1617123268,62e9444de53d6f554eebcc15f397a0c9,PennController,10,0,show-foods-words-trial,NULL,PennController,10,_Trial_,Start,1617122371410,NULL
1617123268,62e9444de53d6f554eebcc15f397a0c9,PennController,10,0,show-foods-words-trial,NULL,PennController,10,_Header_,End,1617122371715,NULL
1617123268,62e9444de53d6f554eebcc15f397a0c9,PennController,10,0,show-foods-words-trial,NULL,PennController,10,_Trial_,End,1617122390368,NULL
1617123268,62e9444de53d6f554eebcc15f397a0c9,PennController,11,0,show-animals-words-trial,NULL,PennController,11,_Header_,Start,1617122390373,NULL
1617123268,62e9444de53d6f554eebcc15f397a0c9,PennController,11,0,show-animals-words-trial,NULL,PennController,11,_Trial_,Start,1617122390373,NULL
1617123268,62e9444de53d6f554eebcc15f397a0c9,PennController,11,0,show-animals-words-trial,NULL,PennController,11,_Header_,End,1617122390676,NULL
1617123268,62e9444de53d6f554eebcc15f397a0c9,PennController,11,0,show-animals-words-trial,NULL,PennController,11,_Trial_,End,1617122409325,NULL
1617123268,62e9444de53d6f554eebcc15f397a0c9,PennController,12,0,show-occupations-words-trial,NULL,PennController,12,_Header_,Start,1617122409331,NULL
1617123268,62e9444de53d6f554eebcc15f397a0c9,PennController,12,0,show-occupations-words-trial,NULL,PennController,12,_Trial_,Start,1617122409331,NULL
1617123268,62e9444de53d6f554eebcc15f397a0c9,PennController,12,0,show-occupations-words-trial,NULL,PennController,12,_Header_,End,1617122409634,NULL
1617123268,62e9444de53d6f554eebcc15f397a0c9,PennController,12,0,show-occupations-words-trial,NULL,PennController,12,_Trial_,End,1617122428281,NULL
1617123268,62e9444de53d6f554eebcc15f397a0c9,PennController,13,0,show-clothing-words-trial,NULL,PennController,13,_Header_,Start,1617122428286,NULL
1617123268,62e9444de53d6f554eebcc15f397a0c9,PennController,13,0,show-clothing-words-trial,NULL,PennController,13,_Trial_,Start,1617122428286,NULL
1617123268,62e9444de53d6f554eebcc15f397a0c9,PennController,13,0,show-clothing-words-trial,NULL,PennController,13,_Header_,End,1617122428588,NULL
1617123268,62e9444de53d6f554eebcc15f397a0c9,PennController,13,0,show-clothing-words-trial,NULL,PennController,13,_Trial_,End,1617122447231,NULL
1617123268,62e9444de53d6f554eebcc15f397a0c9,PennController,14,0,instructions-training-2,NULL,PennController,14,_Header_,Start,1617122447236,NULL
1617123268,62e9444de53d6f554eebcc15f397a0c9,PennController,14,0,instructions-training-2,NULL,PennController,14,_Trial_,Start,1617122447236,NULL
1617123268,62e9444de53d6f554eebcc15f397a0c9,PennController,14,0,instructions-training-2,NULL,PennController,14,_Header_,End,1617122447538,NULL
1617123268,62e9444de53d6f554eebcc15f397a0c9,PennController,14,0,instructions-training-2,NULL,PennController,14,_Trial_,End,1617122460138,NULL
1617123268,62e9444de53d6f554eebcc15f397a0c9,PennController,15,0,click-foods-words-trial,NULL,PennController,15,_Header_,Start,1617122460144,NULL
1617123268,62e9444de53d6f554eebcc15f397a0c9,PennController,15,0,click-foods-words-trial,NULL,PennController,15,_Trial_,Start,1617122460144,NULL
1617123268,62e9444de53d6f554eebcc15f397a0c9,PennController,15,0,click-foods-words-trial,NULL,PennController,15,_Header_,End,1617122460446,NULL
1617123268,62e9444de53d6f554eebcc15f397a0c9,PennController,15,0,click-foods-words-trial,NULL,PennController,15,_Trial_,End,1617122516989,NULL
1617123268,62e9444de53d6f554eebcc15f397a0c9,PennController,16,0,enter-foods-words-trial,NULL,PennController,16,_Header_,Start,1617122516990,NULL
1617123268,62e9444de53d6f554eebcc15f397a0c9,PennController,16,0,enter-foods-words-trial,NULL,PennController,16,_Trial_,Start,1617122516990,NULL
1617123268,62e9444de53d6f554eebcc15f397a0c9,PennController,16,0,enter-foods-words-trial,NULL,PennController,16,_Header_,End,1617122517294,NULL
1617123268,62e9444de53d6f554eebcc15f397a0c9,PennController,16,0,enter-foods-words-trial,NULL,PennController,16,_Trial_,End,1617122736564,NULL
1617123268,62e9444de53d6f554eebcc15f397a0c9,PennController,17,0,click-animals-words-trial,NULL,PennController,17,_Header_,Start,1617122736570,NULL
1617123268,62e9444de53d6f554eebcc15f397a0c9,PennController,17,0,click-animals-words-trial,NULL,PennController,17,_Trial_,Start,1617122736570,NULL
1617123268,62e9444de53d6f554eebcc15f397a0c9,PennController,17,0,click-animals-words-trial,NULL,PennController,17,_Header_,End,1617122736871,NULL
1617123268,62e9444de53d6f554eebcc15f397a0c9,PennController,17,0,click-animals-words-trial,NULL,PennController,17,_Trial_,End,1617122777600,NULL
1617123268,62e9444de53d6f554eebcc15f397a0c9,PennController,18,0,enter-foods-words-trial,NULL,PennController,18,_Header_,Start,1617122777601,NULL
1617123268,62e9444de53d6f554eebcc15f397a0c9,PennController,18,0,enter-foods-words-trial,NULL,PennController,18,_Trial_,Start,1617122777601,NULL
1617123268,62e9444de53d6f554eebcc15f397a0c9,PennController,18,0,enter-foods-words-trial,NULL,PennController,18,_Header_,End,1617122777905,NULL
1617123268,62e9444de53d6f554eebcc15f397a0c9,PennController,18,0,enter-foods-words-trial,NULL,PennController,18,_Trial_,End,1617122821215,NULL
1617123268,62e9444de53d6f554eebcc15f397a0c9,PennController,19,0,click-occupations-words-trial,NULL,PennController,19,_Header_,Start,1617122821220,NULL
1617123268,62e9444de53d6f554eebcc15f397a0c9,PennController,19,0,click-occupations-words-trial,NULL,PennController,19,_Trial_,Start,1617122821220,NULL
1617123268,62e9444de53d6f554eebcc15f397a0c9,PennController,19,0,click-occupations-words-trial,NULL,PennController,19,_Header_,End,1617122821523,NULL
1617123268,62e9444de53d6f554eebcc15f397a0c9,PennController,19,0,click-occupations-words-trial,NULL,PennController,19,_Trial_,End,1617123134631,NULL
1617123268,62e9444de53d6f554eebcc15f397a0c9,PennController,20,0,enter-occupations-words-trial,NULL,PennController,20,_Header_,Start,1617123134632,NULL
1617123268,62e9444de53d6f554eebcc15f397a0c9,PennController,20,0,enter-occupations-words-trial,NULL,PennController,20,_Trial_,Start,1617123134632,NULL
1617123268,62e9444de53d6f554eebcc15f397a0c9,PennController,20,0,enter-occupations-words-trial,NULL,PennController,20,_Header_,End,1617123134934,NULL
1617123268,62e9444de53d6f554eebcc15f397a0c9,PennController,20,0,enter-occupations-words-trial,NULL,PennController,20,_Trial_,End,1617123189444,NULL
1617123268,62e9444de53d6f554eebcc15f397a0c9,PennController,21,0,click-clothing-words-trial,NULL,PennController,21,_Header_,Start,1617123189448,NULL
1617123268,62e9444de53d6f554eebcc15f397a0c9,PennController,21,0,click-clothing-words-trial,NULL,PennController,21,_Trial_,Start,1617123189448,NULL
1617123268,62e9444de53d6f554eebcc15f397a0c9,PennController,21,0,click-clothing-words-trial,NULL,PennController,21,_Header_,End,1617123189751,NULL
1617123268,62e9444de53d6f554eebcc15f397a0c9,PennController,21,0,click-clothing-words-trial,NULL,PennController,21,_Trial_,End,1617123231017,NULL
1617123268,62e9444de53d6f554eebcc15f397a0c9,PennController,22,0,enter-clothing-words-trial,NULL,PennController,22,_Header_,Start,1617123231018,NULL
1617123268,62e9444de53d6f554eebcc15f397a0c9,PennController,22,0,enter-clothing-words-trial,NULL,PennController,22,_Trial_,Start,1617123231018,NULL
1617123268,62e9444de53d6f554eebcc15f397a0c9,PennController,22,0,enter-clothing-words-trial,NULL,PennController,22,_Header_,End,1617123231319,NULL
1617123268,62e9444de53d6f554eebcc15f397a0c9,PennController,22,0,enter-clothing-words-trial,NULL,PennController,22,_Trial_,End,1617123268018,NULL
#
# Results on Tuesday March 30 2021 16:59:04 UTC
# USER AGENT: Mozilla/5.0 (iPhone; CPU iPhone OS 14_4_2 like Mac OS X) AppleWebKit/605.1.15 (KHTML, like Gecko) Version/14.0.3 Mobile/15E148 Safari/604.1
# Design number was non-random = 2
#
# Columns below this comment are as follows:
# 1. Results reception time.
# 2. MD5 hash of participant's IP address.
# 3. Controller name.
# 4. Order number of item.
# 5. Inner element number.
# 6. Label.
# 7. Latin Square Group.
# 8. PennElementType.
# 9. PennElementName.
# 10. Parameter.
# 11. Value.
# 12. EventTime.
# 13. targetWords.
# 14. Comments.
1617123544,62e9444de53d6f554eebcc15f397a0c9,PennController,0,0,welcome,NULL,PennController,0,_Header_,Start,1617122355368,salad tofu cereal lemon spice bread bird snail lion dolphin penguin panda nurse musician trucker consultant cleaner accountant scarf socks parka shorts bikini underwear,NULL
1617123544,62e9444de53d6f554eebcc15f397a0c9,PennController,0,0,welcome,NULL,PennController,0,_Trial_,Start,1617122355368,salad tofu cereal lemon spice bread bird snail lion dolphin penguin panda nurse musician trucker consultant cleaner accountant scarf socks parka shorts bikini underwear,NULL
1617123544,62e9444de53d6f554eebcc15f397a0c9,PennController,0,0,welcome,NULL,PennController,0,_Header_,End,1617122355673,salad tofu cereal lemon spice bread bird snail lion dolphin penguin panda nurse musician trucker consultant cleaner accountant scarf socks parka shorts bikini underwear,NULL
1617123544,62e9444de53d6f554eebcc15f397a0c9,PennController,0,0,welcome,NULL,PennController,0,_Trial_,End,1617122378593,salad tofu cereal lemon spice bread bird snail lion dolphin penguin panda nurse musician trucker consultant cleaner accountant scarf socks parka shorts bikini underwear,NULL
# 13. Comments.
1617123544,62e9444de53d6f554eebcc15f397a0c9,PennController,1,0,demographics-age,NULL,PennController,1,_Header_,Start,1617122378596,NULL
1617123544,62e9444de53d6f554eebcc15f397a0c9,PennController,1,0,demographics-age,NULL,PennController,1,_Trial_,Start,1617122378596,NULL
1617123544,62e9444de53d6f554eebcc15f397a0c9,PennController,1,0,demographics-age,NULL,PennController,1,_Header_,End,1617122378897,NULL
1617123544,62e9444de53d6f554eebcc15f397a0c9,PennController,1,0,demographics-age,NULL,TextInput,age-input,Final,59,1617122391751,NULL
1617123544,62e9444de53d6f554eebcc15f397a0c9,PennController,1,0,demographics-age,NULL,PennController,1,_Trial_,End,1617122391752,NULL
1617123544,62e9444de53d6f554eebcc15f397a0c9,PennController,2,0,demographics-gender,NULL,PennController,2,_Header_,Start,1617122391755,NULL
1617123544,62e9444de53d6f554eebcc15f397a0c9,PennController,2,0,demographics-gender,NULL,PennController,2,_Trial_,Start,1617122391755,NULL
1617123544,62e9444de53d6f554eebcc15f397a0c9,PennController,2,0,demographics-gender,NULL,PennController,2,_Header_,End,1617122392059,NULL
1617123544,62e9444de53d6f554eebcc15f397a0c9,PennController,2,0,demographics-gender,NULL,Scale,gender,Choice,male,1617122401437,NULL
1617123544,62e9444de53d6f554eebcc15f397a0c9,PennController,2,0,demographics-gender,NULL,PennController,2,_Trial_,End,1617122401441,NULL
1617123544,62e9444de53d6f554eebcc15f397a0c9,PennController,3,0,demographics-bored,NULL,PennController,3,_Header_,Start,1617122401446,NULL
1617123544,62e9444de53d6f554eebcc15f397a0c9,PennController,3,0,demographics-bored,NULL,PennController,3,_Trial_,Start,1617122401446,NULL
1617123544,62e9444de53d6f554eebcc15f397a0c9,PennController,3,0,demographics-bored,NULL,PennController,3,_Header_,End,1617122401748,NULL
1617123544,62e9444de53d6f554eebcc15f397a0c9,PennController,3,0,demographics-bored,NULL,Scale,bored,Choice,Neutral,1617122426115,NULL
1617123544,62e9444de53d6f554eebcc15f397a0c9,PennController,3,0,demographics-bored,NULL,PennController,3,_Trial_,End,1617122426118,NULL
1617123544,62e9444de53d6f554eebcc15f397a0c9,PennController,4,0,demographics-movies,NULL,PennController,4,_Header_,Start,1617122426125,NULL
1617123544,62e9444de53d6f554eebcc15f397a0c9,PennController,4,0,demographics-movies,NULL,PennController,4,_Trial_,Start,1617122426125,NULL
1617123544,62e9444de53d6f554eebcc15f397a0c9,PennController,4,0,demographics-movies,NULL,PennController,4,_Header_,End,1617122426428,NULL
1617123544,62e9444de53d6f554eebcc15f397a0c9,PennController,4,0,demographics-movies,NULL,Scale,movies,Choice,True,1617122435252,NULL
1617123544,62e9444de53d6f554eebcc15f397a0c9,PennController,4,0,demographics-movies,NULL,PennController,4,_Trial_,End,1617122435255,NULL
1617123544,62e9444de53d6f554eebcc15f397a0c9,PennController,5,0,instructions-relaxation,NULL,PennController,5,_Header_,Start,1617122435260,NULL
1617123544,62e9444de53d6f554eebcc15f397a0c9,PennController,5,0,instructions-relaxation,NULL,PennController,5,_Trial_,Start,1617122435260,NULL
1617123544,62e9444de53d6f554eebcc15f397a0c9,PennController,5,0,instructions-relaxation,NULL,PennController,5,_Header_,End,1617122435562,NULL
1617123544,62e9444de53d6f554eebcc15f397a0c9,PennController,5,0,instructions-relaxation,NULL,PennController,5,_Trial_,End,1617122465396,NULL
1617123544,62e9444de53d6f554eebcc15f397a0c9,PennController,6,0,instructions-show-words,NULL,PennController,6,_Header_,Start,1617122465405,NULL
1617123544,62e9444de53d6f554eebcc15f397a0c9,PennController,6,0,instructions-show-words,NULL,PennController,6,_Trial_,Start,1617122465405,NULL
1617123544,62e9444de53d6f554eebcc15f397a0c9,PennController,6,0,instructions-show-words,NULL,PennController,6,_Header_,End,1617122465707,NULL
1617123544,62e9444de53d6f554eebcc15f397a0c9,PennController,6,0,instructions-show-words,NULL,PennController,6,_Trial_,End,1617122481229,NULL
1617123544,62e9444de53d6f554eebcc15f397a0c9,PennController,7,0,show-all-words-trial,NULL,PennController,7,_Header_,Start,1617122481234,NULL
1617123544,62e9444de53d6f554eebcc15f397a0c9,PennController,7,0,show-all-words-trial,NULL,PennController,7,_Trial_,Start,1617122481234,NULL
1617123544,62e9444de53d6f554eebcc15f397a0c9,PennController,7,0,show-all-words-trial,NULL,PennController,7,_Header_,End,1617122481537,NULL
1617123544,62e9444de53d6f554eebcc15f397a0c9,PennController,7,0,show-all-words-trial,NULL,PennController,7,_Trial_,End,1617122630684,NULL
1617123544,62e9444de53d6f554eebcc15f397a0c9,PennController,8,0,recall-trial,NULL,PennController,8,_Header_,Start,1617122630688,NULL
1617123544,62e9444de53d6f554eebcc15f397a0c9,PennController,8,0,recall-trial,NULL,PennController,8,_Trial_,Start,1617122630688,NULL
1617123544,62e9444de53d6f554eebcc15f397a0c9,PennController,8,0,recall-trial,NULL,PennController,8,_Header_,End,1617122630991,NULL
1617123544,62e9444de53d6f554eebcc15f397a0c9,PennController,8,0,recall-trial,NULL,Html,recall,recall_2,Rice,1617122901067,text input
1617123544,62e9444de53d6f554eebcc15f397a0c9,PennController,8,0,recall-trial,NULL,Html,recall,recall_1,Lemon,1617122901067,text input
1617123544,62e9444de53d6f554eebcc15f397a0c9,PennController,8,0,recall-trial,NULL,Html,recall,recall_13,Lion,1617122901068,text input
1617123544,62e9444de53d6f554eebcc15f397a0c9,PennController,8,0,recall-trial,NULL,Html,recall,recall_12,Shorts,1617122901068,text input
1617123544,62e9444de53d6f554eebcc15f397a0c9,PennController,8,0,recall-trial,NULL,Html,recall,recall_11,Skirts,1617122901068,text input
1617123544,62e9444de53d6f554eebcc15f397a0c9,PennController,8,0,recall-trial,NULL,Html,recall,recall_10,Accountant,1617122901068,text input
1617123544,62e9444de53d6f554eebcc15f397a0c9,PennController,8,0,recall-trial,NULL,Html,recall,recall_9,Dentist,1617122901068,text input
1617123544,62e9444de53d6f554eebcc15f397a0c9,PennController,8,0,recall-trial,NULL,Html,recall,recall_8,Consultant,1617122901068,text input
1617123544,62e9444de53d6f554eebcc15f397a0c9,PennController,8,0,recall-trial,NULL,Html,recall,recall_7,Pinguin,1617122901068,text input
1617123544,62e9444de53d6f554eebcc15f397a0c9,PennController,8,0,recall-trial,NULL,Html,recall,recall_6,Bikini ,1617122901068,text input
1617123544,62e9444de53d6f554eebcc15f397a0c9,PennController,8,0,recall-trial,NULL,Html,recall,recall_5,Underwear,1617122901068,text input
1617123544,62e9444de53d6f554eebcc15f397a0c9,PennController,8,0,recall-trial,NULL,Html,recall,recall_4,Tailor,1617122901068,text input
1617123544,62e9444de53d6f554eebcc15f397a0c9,PennController,8,0,recall-trial,NULL,Html,recall,recall_3,Snake,1617122901068,text input
1617123544,62e9444de53d6f554eebcc15f397a0c9,PennController,8,0,recall-trial,NULL,Html,recall,recall_34,,1617122901069,text input
1617123544,62e9444de53d6f554eebcc15f397a0c9,PennController,8,0,recall-trial,NULL,Html,recall,recall_33,,1617122901069,text input
1617123544,62e9444de53d6f554eebcc15f397a0c9,PennController,8,0,recall-trial,NULL,Html,recall,recall_32,,1617122901069,text input
1617123544,62e9444de53d6f554eebcc15f397a0c9,PennController,8,0,recall-trial,NULL,Html,recall,recall_31,,1617122901069,text input
1617123544,62e9444de53d6f554eebcc15f397a0c9,PennController,8,0,recall-trial,NULL,Html,recall,recall_30,,1617122901069,text input
1617123544,62e9444de53d6f554eebcc15f397a0c9,PennController,8,0,recall-trial,NULL,Html,recall,recall_29,,1617122901069,text input
1617123544,62e9444de53d6f554eebcc15f397a0c9,PennController,8,0,recall-trial,NULL,Html,recall,recall_28,,1617122901069,text input
1617123544,62e9444de53d6f554eebcc15f397a0c9,PennController,8,0,recall-trial,NULL,Html,recall,recall_27,,1617122901069,text input
1617123544,62e9444de53d6f554eebcc15f397a0c9,PennController,8,0,recall-trial,NULL,Html,recall,recall_26,,1617122901069,text input
1617123544,62e9444de53d6f554eebcc15f397a0c9,PennController,8,0,recall-trial,NULL,Html,recall,recall_25,,1617122901069,text input
1617123544,62e9444de53d6f554eebcc15f397a0c9,PennController,8,0,recall-trial,NULL,Html,recall,recall_24,,1617122901069,text input
1617123544,62e9444de53d6f554eebcc15f397a0c9,PennController,8,0,recall-trial,NULL,Html,recall,recall_23,,1617122901069,text input
1617123544,62e9444de53d6f554eebcc15f397a0c9,PennController,8,0,recall-trial,NULL,Html,recall,recall_22,,1617122901069,text input
1617123544,62e9444de53d6f554eebcc15f397a0c9,PennController,8,0,recall-trial,NULL,Html,recall,recall_21,,1617122901069,text input
1617123544,62e9444de53d6f554eebcc15f397a0c9,PennController,8,0,recall-trial,NULL,Html,recall,recall_20,,1617122901069,text input
1617123544,62e9444de53d6f554eebcc15f397a0c9,PennController,8,0,recall-trial,NULL,Html,recall,recall_19,,1617122901069,text input
1617123544,62e9444de53d6f554eebcc15f397a0c9,PennController,8,0,recall-trial,NULL,Html,recall,recall_18,Snail ,1617122901069,text input
1617123544,62e9444de53d6f554eebcc15f397a0c9,PennController,8,0,recall-trial,NULL,Html,recall,recall_17,Coat,1617122901069,text input
1617123544,62e9444de53d6f554eebcc15f397a0c9,PennController,8,0,recall-trial,NULL,Html,recall,recall_16,Bread,1617122901069,text input
1617123544,62e9444de53d6f554eebcc15f397a0c9,PennController,8,0,recall-trial,NULL,Html,recall,recall_15,Actor,1617122901069,text input
1617123544,62e9444de53d6f554eebcc15f397a0c9,PennController,8,0,recall-trial,NULL,Html,recall,recall_14,Bee,1617122901069,text input
1617123544,62e9444de53d6f554eebcc15f397a0c9,PennController,8,0,recall-trial,NULL,Html,recall,recall_48,,1617122901070,text input
1617123544,62e9444de53d6f554eebcc15f397a0c9,PennController,8,0,recall-trial,NULL,Html,recall,recall_47,,1617122901070,text input
1617123544,62e9444de53d6f554eebcc15f397a0c9,PennController,8,0,recall-trial,NULL,Html,recall,recall_46,,1617122901070,text input
1617123544,62e9444de53d6f554eebcc15f397a0c9,PennController,8,0,recall-trial,NULL,Html,recall,recall_45,,1617122901070,text input
1617123544,62e9444de53d6f554eebcc15f397a0c9,PennController,8,0,recall-trial,NULL,Html,recall,recall_44,,1617122901070,text input
1617123544,62e9444de53d6f554eebcc15f397a0c9,PennController,8,0,recall-trial,NULL,Html,recall,recall_43,,1617122901070,text input
1617123544,62e9444de53d6f554eebcc15f397a0c9,PennController,8,0,recall-trial,NULL,Html,recall,recall_42,,1617122901070,text input
1617123544,62e9444de53d6f554eebcc15f397a0c9,PennController,8,0,recall-trial,NULL,Html,recall,recall_40,,1617122901070,text input
1617123544,62e9444de53d6f554eebcc15f397a0c9,PennController,8,0,recall-trial,NULL,Html,recall,recall_39,,1617122901070,text input
1617123544,62e9444de53d6f554eebcc15f397a0c9,PennController,8,0,recall-trial,NULL,Html,recall,recall_38,,1617122901070,text input
1617123544,62e9444de53d6f554eebcc15f397a0c9,PennController,8,0,recall-trial,NULL,Html,recall,recall_37,,1617122901070,text input
1617123544,62e9444de53d6f554eebcc15f397a0c9,PennController,8,0,recall-trial,NULL,Html,recall,recall_36,,1617122901070,text input
1617123544,62e9444de53d6f554eebcc15f397a0c9,PennController,8,0,recall-trial,NULL,Html,recall,recall_35,,1617122901070,text input
1617123544,62e9444de53d6f554eebcc15f397a0c9,PennController,8,0,recall-trial,NULL,PennController,8,_Trial_,End,1617122901071,NULL
1617123544,62e9444de53d6f554eebcc15f397a0c9,PennController,9,0,instructions-training-1,NULL,PennController,9,_Header_,Start,1617122901078,NULL
1617123544,62e9444de53d6f554eebcc15f397a0c9,PennController,9,0,instructions-training-1,NULL,PennController,9,_Trial_,Start,1617122901078,NULL
1617123544,62e9444de53d6f554eebcc15f397a0c9,PennController,9,0,instructions-training-1,NULL,PennController,9,_Header_,End,1617122901381,NULL
1617123544,62e9444de53d6f554eebcc15f397a0c9,PennController,9,0,instructions-training-1,NULL,PennController,9,_Trial_,End,1617122915559,NULL
1617123544,62e9444de53d6f554eebcc15f397a0c9,PennController,10,0,show-foods-words-trial,NULL,PennController,10,_Header_,Start,1617122915564,NULL
1617123544,62e9444de53d6f554eebcc15f397a0c9,PennController,10,0,show-foods-words-trial,NULL,PennController,10,_Trial_,Start,1617122915564,NULL
1617123544,62e9444de53d6f554eebcc15f397a0c9,PennController,10,0,show-foods-words-trial,NULL,PennController,10,_Header_,End,1617122915867,NULL
1617123544,62e9444de53d6f554eebcc15f397a0c9,PennController,10,0,show-foods-words-trial,NULL,PennController,10,_Trial_,End,1617122934522,NULL
1617123544,62e9444de53d6f554eebcc15f397a0c9,PennController,11,0,show-animals-words-trial,NULL,PennController,11,_Header_,Start,1617122934526,NULL
1617123544,62e9444de53d6f554eebcc15f397a0c9,PennController,11,0,show-animals-words-trial,NULL,PennController,11,_Trial_,Start,1617122934526,NULL
1617123544,62e9444de53d6f554eebcc15f397a0c9,PennController,11,0,show-animals-words-trial,NULL,PennController,11,_Header_,End,1617122934829,NULL
1617123544,62e9444de53d6f554eebcc15f397a0c9,PennController,11,0,show-animals-words-trial,NULL,PennController,11,_Trial_,End,1617122953477,NULL
1617123544,62e9444de53d6f554eebcc15f397a0c9,PennController,12,0,show-occupations-words-trial,NULL,PennController,12,_Header_,Start,1617122953483,NULL
1617123544,62e9444de53d6f554eebcc15f397a0c9,PennController,12,0,show-occupations-words-trial,NULL,PennController,12,_Trial_,Start,1617122953483,NULL
1617123544,62e9444de53d6f554eebcc15f397a0c9,PennController,12,0,show-occupations-words-trial,NULL,PennController,12,_Header_,End,1617122953787,NULL
1617123544,62e9444de53d6f554eebcc15f397a0c9,PennController,12,0,show-occupations-words-trial,NULL,PennController,12,_Trial_,End,1617122972430,NULL
1617123544,62e9444de53d6f554eebcc15f397a0c9,PennController,13,0,show-clothing-words-trial,NULL,PennController,13,_Header_,Start,1617122972435,NULL
1617123544,62e9444de53d6f554eebcc15f397a0c9,PennController,13,0,show-clothing-words-trial,NULL,PennController,13,_Trial_,Start,1617122972435,NULL
1617123544,62e9444de53d6f554eebcc15f397a0c9,PennController,13,0,show-clothing-words-trial,NULL,PennController,13,_Header_,End,1617122972738,NULL
1617123544,62e9444de53d6f554eebcc15f397a0c9,PennController,13,0,show-clothing-words-trial,NULL,PennController,13,_Trial_,End,1617122991379,NULL
1617123544,62e9444de53d6f554eebcc15f397a0c9,PennController,14,0,instructions-training-2,NULL,PennController,14,_Header_,Start,1617122991384,NULL
1617123544,62e9444de53d6f554eebcc15f397a0c9,PennController,14,0,instructions-training-2,NULL,PennController,14,_Trial_,Start,1617122991384,NULL
1617123544,62e9444de53d6f554eebcc15f397a0c9,PennController,14,0,instructions-training-2,NULL,PennController,14,_Header_,End,1617122991688,NULL
1617123544,62e9444de53d6f554eebcc15f397a0c9,PennController,14,0,instructions-training-2,NULL,PennController,14,_Trial_,End,1617122999409,NULL
1617123544,62e9444de53d6f554eebcc15f397a0c9,PennController,15,0,click-foods-words-trial,NULL,PennController,15,_Header_,Start,1617122999415,NULL
1617123544,62e9444de53d6f554eebcc15f397a0c9,PennController,15,0,click-foods-words-trial,NULL,PennController,15,_Trial_,Start,1617122999415,NULL
1617123544,62e9444de53d6f554eebcc15f397a0c9,PennController,15,0,click-foods-words-trial,NULL,PennController,15,_Header_,End,1617122999716,NULL
1617123544,62e9444de53d6f554eebcc15f397a0c9,PennController,15,0,click-foods-words-trial,NULL,PennController,15,_Trial_,End,1617123038592,NULL
1617123544,62e9444de53d6f554eebcc15f397a0c9,PennController,16,0,enter-foods-words-trial,NULL,PennController,16,_Header_,Start,1617123038593,NULL
1617123544,62e9444de53d6f554eebcc15f397a0c9,PennController,16,0,enter-foods-words-trial,NULL,PennController,16,_Trial_,Start,1617123038593,NULL
1617123544,62e9444de53d6f554eebcc15f397a0c9,PennController,16,0,enter-foods-words-trial,NULL,PennController,16,_Header_,End,1617123038896,NULL
1617123544,62e9444de53d6f554eebcc15f397a0c9,PennController,16,0,enter-foods-words-trial,NULL,PennController,16,_Trial_,End,1617123180277,NULL
1617123544,62e9444de53d6f554eebcc15f397a0c9,PennController,17,0,click-animals-words-trial,NULL,PennController,17,_Header_,Start,1617123180282,NULL
1617123544,62e9444de53d6f554eebcc15f397a0c9,PennController,17,0,click-animals-words-trial,NULL,PennController,17,_Trial_,Start,1617123180282,NULL
1617123544,62e9444de53d6f554eebcc15f397a0c9,PennController,17,0,click-animals-words-trial,NULL,PennController,17,_Header_,End,1617123180584,NULL
1617123544,62e9444de53d6f554eebcc15f397a0c9,PennController,17,0,click-animals-words-trial,NULL,PennController,17,_Trial_,End,1617123215697,NULL
1617123544,62e9444de53d6f554eebcc15f397a0c9,PennController,18,0,enter-foods-words-trial,NULL,PennController,18,_Header_,Start,1617123215698,NULL
1617123544,62e9444de53d6f554eebcc15f397a0c9,PennController,18,0,enter-foods-words-trial,NULL,PennController,18,_Trial_,Start,1617123215698,NULL
1617123544,62e9444de53d6f554eebcc15f397a0c9,PennController,18,0,enter-foods-words-trial,NULL,PennController,18,_Header_,End,1617123216001,NULL
1617123544,62e9444de53d6f554eebcc15f397a0c9,PennController,18,0,enter-foods-words-trial,NULL,PennController,18,_Trial_,End,1617123275076,NULL
1617123544,62e9444de53d6f554eebcc15f397a0c9,PennController,19,0,click-occupations-words-trial,NULL,PennController,19,_Header_,Start,1617123275080,NULL
1617123544,62e9444de53d6f554eebcc15f397a0c9,PennController,19,0,click-occupations-words-trial,NULL,PennController,19,_Trial_,Start,1617123275080,NULL
1617123544,62e9444de53d6f554eebcc15f397a0c9,PennController,19,0,click-occupations-words-trial,NULL,PennController,19,_Header_,End,1617123275382,NULL
1617123544,62e9444de53d6f554eebcc15f397a0c9,PennController,19,0,click-occupations-words-trial,NULL,PennController,19,_Trial_,End,1617123309099,NULL
1617123544,62e9444de53d6f554eebcc15f397a0c9,PennController,20,0,enter-occupations-words-trial,NULL,PennController,20,_Header_,Start,1617123309101,NULL
1617123544,62e9444de53d6f554eebcc15f397a0c9,PennController,20,0,enter-occupations-words-trial,NULL,PennController,20,_Trial_,Start,1617123309101,NULL
1617123544,62e9444de53d6f554eebcc15f397a0c9,PennController,20,0,enter-occupations-words-trial,NULL,PennController,20,_Header_,End,1617123309404,NULL
1617123544,62e9444de53d6f554eebcc15f397a0c9,PennController,20,0,enter-occupations-words-trial,NULL,PennController,20,_Trial_,End,1617123362261,NULL
1617123544,62e9444de53d6f554eebcc15f397a0c9,PennController,21,0,click-clothing-words-trial,NULL,PennController,21,_Header_,Start,1617123362265,NULL
1617123544,62e9444de53d6f554eebcc15f397a0c9,PennController,21,0,click-clothing-words-trial,NULL,PennController,21,_Trial_,Start,1617123362265,NULL
1617123544,62e9444de53d6f554eebcc15f397a0c9,PennController,21,0,click-clothing-words-trial,NULL,PennController,21,_Header_,End,1617123362569,NULL
1617123544,62e9444de53d6f554eebcc15f397a0c9,PennController,21,0,click-clothing-words-trial,NULL,PennController,21,_Trial_,End,1617123408251,NULL
1617123544,62e9444de53d6f554eebcc15f397a0c9,PennController,22,0,enter-clothing-words-trial,NULL,PennController,22,_Header_,Start,1617123408252,NULL
1617123544,62e9444de53d6f554eebcc15f397a0c9,PennController,22,0,enter-clothing-words-trial,NULL,PennController,22,_Trial_,Start,1617123408252,NULL
1617123544,62e9444de53d6f554eebcc15f397a0c9,PennController,22,0,enter-clothing-words-trial,NULL,PennController,22,_Header_,End,1617123408556,NULL
1617123544,62e9444de53d6f554eebcc15f397a0c9,PennController,22,0,enter-clothing-words-trial,NULL,PennController,22,_Trial_,End,1617123543526,NULL
#
# Results on Wednesday March 31 2021 08:34:54 UTC
# USER AGENT: Mozilla/5.0 (X11; Linux x86_64) AppleWebKit/537.36 (KHTML, like Gecko) Chrome/89.0.4389.90 Safari/537.36
# Design number was non-random = 4
#
# Columns below this comment are as follows:
# 1. Results reception time.
# 2. MD5 hash of participant's IP address.
# 3. Controller name.
# 4. Order number of item.
# 5. Inner element number.
# 6. Label.
# 7. Latin Square Group.
# 8. PennElementType.
# 9. PennElementName.
# 10. Parameter.
# 11. Value.
# 12. EventTime.
# 13. targetWords.
# 14. Comments.
1617179694,e4cf2c0df4178c7b0750cb8b4d0d93a2,PennController,0,0,welcome,NULL,PennController,0,_Trial_,Start,1617178776177,vinegar soup tofu lemon rice spice dolphin donkey bee lion snail bird consultant politician musician tailor trucker actor socks dress shorts underwear jeans gloves,NULL
1617179694,e4cf2c0df4178c7b0750cb8b4d0d93a2,PennController,0,0,welcome,NULL,PennController,0,_Header_,Start,1617178776177,vinegar soup tofu lemon rice spice dolphin donkey bee lion snail bird consultant politician musician tailor trucker actor socks dress shorts underwear jeans gloves,NULL
1617179694,e4cf2c0df4178c7b0750cb8b4d0d93a2,PennController,0,0,welcome,NULL,PennController,0,_Header_,End,1617178776480,vinegar soup tofu lemon rice spice dolphin donkey bee lion snail bird consultant politician musician tailor trucker actor socks dress shorts underwear jeans gloves,NULL
1617179694,e4cf2c0df4178c7b0750cb8b4d0d93a2,PennController,0,0,welcome,NULL,PennController,0,_Trial_,End,1617178898555,vinegar soup tofu lemon rice spice dolphin donkey bee lion snail bird consultant politician musician tailor trucker actor socks dress shorts underwear jeans gloves,NULL
# 13. Comments.
1617179694,e4cf2c0df4178c7b0750cb8b4d0d93a2,PennController,1,0,demographics-age,NULL,PennController,1,_Trial_,Start,1617178898558,NULL
1617179694,e4cf2c0df4178c7b0750cb8b4d0d93a2,PennController,1,0,demographics-age,NULL,PennController,1,_Header_,Start,1617178898558,NULL
1617179694,e4cf2c0df4178c7b0750cb8b4d0d93a2,PennController,1,0,demographics-age,NULL,PennController,1,_Header_,End,1617178898861,NULL
1617179694,e4cf2c0df4178c7b0750cb8b4d0d93a2,PennController,1,0,demographics-age,NULL,TextInput,age-input,Final,21,1617178908565,NULL
1617179694,e4cf2c0df4178c7b0750cb8b4d0d93a2,PennController,1,0,demographics-age,NULL,PennController,1,_Trial_,End,1617178908566,NULL
1617179694,e4cf2c0df4178c7b0750cb8b4d0d93a2,PennController,2,0,demographics-gender,NULL,PennController,2,_Trial_,Start,1617178908568,NULL
1617179694,e4cf2c0df4178c7b0750cb8b4d0d93a2,PennController,2,0,demographics-gender,NULL,PennController,2,_Header_,Start,1617178908568,NULL
1617179694,e4cf2c0df4178c7b0750cb8b4d0d93a2,PennController,2,0,demographics-gender,NULL,PennController,2,_Header_,End,1617178908873,NULL
1617179694,e4cf2c0df4178c7b0750cb8b4d0d93a2,PennController,2,0,demographics-gender,NULL,Scale,gender,Choice,male,1617178910367,NULL
1617179694,e4cf2c0df4178c7b0750cb8b4d0d93a2,PennController,2,0,demographics-gender,NULL,PennController,2,_Trial_,End,1617178910369,NULL
1617179694,e4cf2c0df4178c7b0750cb8b4d0d93a2,PennController,3,0,demographics-bored,NULL,PennController,3,_Trial_,Start,1617178910372,NULL
1617179694,e4cf2c0df4178c7b0750cb8b4d0d93a2,PennController,3,0,demographics-bored,NULL,PennController,3,_Header_,Start,1617178910372,NULL
1617179694,e4cf2c0df4178c7b0750cb8b4d0d93a2,PennController,3,0,demographics-bored,NULL,PennController,3,_Header_,End,1617178910676,NULL
1617179694,e4cf2c0df4178c7b0750cb8b4d0d93a2,PennController,3,0,demographics-bored,NULL,Scale,bored,Choice,Untrue,1617178924277,NULL
1617179694,e4cf2c0df4178c7b0750cb8b4d0d93a2,PennController,3,0,demographics-bored,NULL,PennController,3,_Trial_,End,1617178924279,NULL
1617179694,e4cf2c0df4178c7b0750cb8b4d0d93a2,PennController,4,0,demographics-movies,NULL,PennController,4,_Trial_,Start,1617178924281,NULL
1617179694,e4cf2c0df4178c7b0750cb8b4d0d93a2,PennController,4,0,demographics-movies,NULL,PennController,4,_Header_,Start,1617178924281,NULL
1617179694,e4cf2c0df4178c7b0750cb8b4d0d93a2,PennController,4,0,demographics-movies,NULL,PennController,4,_Header_,End,1617178924584,NULL
1617179694,e4cf2c0df4178c7b0750cb8b4d0d93a2,PennController,4,0,demographics-movies,NULL,Scale,movies,Choice,Very untrue,1617178935396,NULL
1617179694,e4cf2c0df4178c7b0750cb8b4d0d93a2,PennController,4,0,demographics-movies,NULL,PennController,4,_Trial_,End,1617178935399,NULL
1617179694,e4cf2c0df4178c7b0750cb8b4d0d93a2,PennController,5,0,instructions-relaxation,NULL,PennController,5,_Trial_,Start,1617178935401,NULL
1617179694,e4cf2c0df4178c7b0750cb8b4d0d93a2,PennController,5,0,instructions-relaxation,NULL,PennController,5,_Header_,Start,1617178935401,NULL
1617179694,e4cf2c0df4178c7b0750cb8b4d0d93a2,PennController,5,0,instructions-relaxation,NULL,PennController,5,_Header_,End,1617178935704,NULL
1617179694,e4cf2c0df4178c7b0750cb8b4d0d93a2,PennController,5,0,instructions-relaxation,NULL,PennController,5,_Trial_,End,1617178967707,NULL
1617179694,e4cf2c0df4178c7b0750cb8b4d0d93a2,PennController,6,0,instructions-show-words,NULL,PennController,6,_Trial_,Start,1617178967710,NULL
1617179694,e4cf2c0df4178c7b0750cb8b4d0d93a2,PennController,6,0,instructions-show-words,NULL,PennController,6,_Header_,Start,1617178967710,NULL
1617179694,e4cf2c0df4178c7b0750cb8b4d0d93a2,PennController,6,0,instructions-show-words,NULL,PennController,6,_Header_,End,1617178968014,NULL
1617179694,e4cf2c0df4178c7b0750cb8b4d0d93a2,PennController,6,0,instructions-show-words,NULL,PennController,6,_Trial_,End,1617178988978,NULL
1617179694,e4cf2c0df4178c7b0750cb8b4d0d93a2,PennController,7,0,show-all-words-trial,NULL,PennController,7,_Trial_,Start,1617178988982,NULL
1617179694,e4cf2c0df4178c7b0750cb8b4d0d93a2,PennController,7,0,show-all-words-trial,NULL,PennController,7,_Header_,Start,1617178988982,NULL
1617179694,e4cf2c0df4178c7b0750cb8b4d0d93a2,PennController,7,0,show-all-words-trial,NULL,PennController,7,_Header_,End,1617178989283,NULL
1617179694,e4cf2c0df4178c7b0750cb8b4d0d93a2,PennController,7,0,show-all-words-trial,NULL,PennController,7,_Trial_,End,1617179138388,NULL
1617179694,e4cf2c0df4178c7b0750cb8b4d0d93a2,PennController,8,0,recall-trial,NULL,PennController,8,_Trial_,Start,1617179138390,NULL
1617179694,e4cf2c0df4178c7b0750cb8b4d0d93a2,PennController,8,0,recall-trial,NULL,PennController,8,_Header_,Start,1617179138390,NULL
1617179694,e4cf2c0df4178c7b0750cb8b4d0d93a2,PennController,8,0,recall-trial,NULL,PennController,8,_Header_,End,1617179138692,NULL
1617179694,e4cf2c0df4178c7b0750cb8b4d0d93a2,PennController,8,0,recall-trial,NULL,Html,recall,recall_1,lemon,1617179466166,text input
1617179694,e4cf2c0df4178c7b0750cb8b4d0d93a2,PennController,8,0,recall-trial,NULL,Html,recall,recall_2,trucker,1617179466166,text input
1617179694,e4cf2c0df4178c7b0750cb8b4d0d93a2,PennController,8,0,recall-trial,NULL,Html,recall,recall_3,parka,1617179466166,text input
1617179694,e4cf2c0df4178c7b0750cb8b4d0d93a2,PennController,8,0,recall-trial,NULL,Html,recall,recall_4,soup,1617179466166,text input
1617179694,e4cf2c0df4178c7b0750cb8b4d0d93a2,PennController,8,0,recall-trial,NULL,Html,recall,recall_5,socks,1617179466166,text input
1617179694,e4cf2c0df4178c7b0750cb8b4d0d93a2,PennController,8,0,recall-trial,NULL,Html,recall,recall_6,accountant,1617179466166,text input
1617179694,e4cf2c0df4178c7b0750cb8b4d0d93a2,PennController,8,0,recall-trial,NULL,Html,recall,recall_7,consultant,1617179466166,text input
1617179694,e4cf2c0df4178c7b0750cb8b4d0d93a2,PennController,8,0,recall-trial,NULL,Html,recall,recall_8,vinegar,1617179466166,text input
1617179694,e4cf2c0df4178c7b0750cb8b4d0d93a2,PennController,8,0,recall-trial,NULL,Html,recall,recall_9,cereals,1617179466166,text input
1617179694,e4cf2c0df4178c7b0750cb8b4d0d93a2,PennController,8,0,recall-trial,NULL,Html,recall,recall_10,spices,1617179466166,text input
1617179694,e4cf2c0df4178c7b0750cb8b4d0d93a2,PennController,8,0,recall-trial,NULL,Html,recall,recall_11,bikini,1617179466166,text input
1617179694,e4cf2c0df4178c7b0750cb8b4d0d93a2,PennController,8,0,recall-trial,NULL,Html,recall,recall_12,jeans,1617179466166,text input
1617179694,e4cf2c0df4178c7b0750cb8b4d0d93a2,PennController,8,0,recall-trial,NULL,Html,recall,recall_13,skirt,1617179466166,text input
1617179694,e4cf2c0df4178c7b0750cb8b4d0d93a2,PennController,8,0,recall-trial,NULL,Html,recall,recall_14,musician,1617179466166,text input
1617179694,e4cf2c0df4178c7b0750cb8b4d0d93a2,PennController,8,0,recall-trial,NULL,Html,recall,recall_15,actor,1617179466166,text input
1617179694,e4cf2c0df4178c7b0750cb8b4d0d93a2,PennController,8,0,recall-trial,NULL,Html,recall,recall_16,hamster,1617179466166,text input
1617179694,e4cf2c0df4178c7b0750cb8b4d0d93a2,PennController,8,0,recall-trial,NULL,Html,recall,recall_17,meat,1617179466166,text input
1617179694,e4cf2c0df4178c7b0750cb8b4d0d93a2,PennController,8,0,recall-trial,NULL,Html,recall,recall_18,corn,1617179466166,text input
1617179694,e4cf2c0df4178c7b0750cb8b4d0d93a2,PennController,8,0,recall-trial,NULL,Html,recall,recall_19,,1617179466166,text input
1617179694,e4cf2c0df4178c7b0750cb8b4d0d93a2,PennController,8,0,recall-trial,NULL,Html,recall,recall_20,,1617179466166,text input
1617179694,e4cf2c0df4178c7b0750cb8b4d0d93a2,PennController,8,0,recall-trial,NULL,Html,recall,recall_21,,1617179466166,text input
1617179694,e4cf2c0df4178c7b0750cb8b4d0d93a2,PennController,8,0,recall-trial,NULL,Html,recall,recall_22,,1617179466166,text input
1617179694,e4cf2c0df4178c7b0750cb8b4d0d93a2,PennController,8,0,recall-trial,NULL,Html,recall,recall_23,,1617179466166,text input
1617179694,e4cf2c0df4178c7b0750cb8b4d0d93a2,PennController,8,0,recall-trial,NULL,Html,recall,recall_24,,1617179466166,text input
1617179694,e4cf2c0df4178c7b0750cb8b4d0d93a2,PennController,8,0,recall-trial,NULL,Html,recall,recall_25,,1617179466166,text input
1617179694,e4cf2c0df4178c7b0750cb8b4d0d93a2,PennController,8,0,recall-trial,NULL,Html,recall,recall_26,,1617179466166,text input
1617179694,e4cf2c0df4178c7b0750cb8b4d0d93a2,PennController,8,0,recall-trial,NULL,Html,recall,recall_27,,1617179466167,text input
1617179694,e4cf2c0df4178c7b0750cb8b4d0d93a2,PennController,8,0,recall-trial,NULL,Html,recall,recall_28,,1617179466167,text input
1617179694,e4cf2c0df4178c7b0750cb8b4d0d93a2,PennController,8,0,recall-trial,NULL,Html,recall,recall_29,,1617179466167,text input
1617179694,e4cf2c0df4178c7b0750cb8b4d0d93a2,PennController,8,0,recall-trial,NULL,Html,recall,recall_30,,1617179466167,text input
1617179694,e4cf2c0df4178c7b0750cb8b4d0d93a2,PennController,8,0,recall-trial,NULL,Html,recall,recall_31,,1617179466167,text input
1617179694,e4cf2c0df4178c7b0750cb8b4d0d93a2,PennController,8,0,recall-trial,NULL,Html,recall,recall_32,,1617179466167,text input
1617179694,e4cf2c0df4178c7b0750cb8b4d0d93a2,PennController,8,0,recall-trial,NULL,Html,recall,recall_33,,1617179466167,text input
1617179694,e4cf2c0df4178c7b0750cb8b4d0d93a2,PennController,8,0,recall-trial,NULL,Html,recall,recall_34,,1617179466167,text input
1617179694,e4cf2c0df4178c7b0750cb8b4d0d93a2,PennController,8,0,recall-trial,NULL,Html,recall,recall_35,,1617179466167,text input
1617179694,e4cf2c0df4178c7b0750cb8b4d0d93a2,PennController,8,0,recall-trial,NULL,Html,recall,recall_36,,1617179466167,text input
1617179694,e4cf2c0df4178c7b0750cb8b4d0d93a2,PennController,8,0,recall-trial,NULL,Html,recall,recall_37,,1617179466167,text input
1617179694,e4cf2c0df4178c7b0750cb8b4d0d93a2,PennController,8,0,recall-trial,NULL,Html,recall,recall_38,,1617179466167,text input
1617179694,e4cf2c0df4178c7b0750cb8b4d0d93a2,PennController,8,0,recall-trial,NULL,Html,recall,recall_39,,1617179466167,text input
1617179694,e4cf2c0df4178c7b0750cb8b4d0d93a2,PennController,8,0,recall-trial,NULL,Html,recall,recall_40,,1617179466167,text input
1617179694,e4cf2c0df4178c7b0750cb8b4d0d93a2,PennController,8,0,recall-trial,NULL,Html,recall,recall_42,,1617179466167,text input
1617179694,e4cf2c0df4178c7b0750cb8b4d0d93a2,PennController,8,0,recall-trial,NULL,Html,recall,recall_43,,1617179466167,text input
1617179694,e4cf2c0df4178c7b0750cb8b4d0d93a2,PennController,8,0,recall-trial,NULL,Html,recall,recall_44,,1617179466167,text input
1617179694,e4cf2c0df4178c7b0750cb8b4d0d93a2,PennController,8,0,recall-trial,NULL,Html,recall,recall_45,,1617179466167,text input
1617179694,e4cf2c0df4178c7b0750cb8b4d0d93a2,PennController,8,0,recall-trial,NULL,Html,recall,recall_46,,1617179466167,text input
1617179694,e4cf2c0df4178c7b0750cb8b4d0d93a2,PennController,8,0,recall-trial,NULL,Html,recall,recall_47,,1617179466167,text input
1617179694,e4cf2c0df4178c7b0750cb8b4d0d93a2,PennController,8,0,recall-trial,NULL,Html,recall,recall_48,,1617179466167,text input
1617179694,e4cf2c0df4178c7b0750cb8b4d0d93a2,PennController,8,0,recall-trial,NULL,PennController,8,_Trial_,End,1617179466168,NULL
1617179694,e4cf2c0df4178c7b0750cb8b4d0d93a2,PennController,9,0,instructions-training-1,NULL,PennController,9,_Trial_,Start,1617179466176,NULL
1617179694,e4cf2c0df4178c7b0750cb8b4d0d93a2,PennController,9,0,instructions-training-1,NULL,PennController,9,_Header_,Start,1617179466176,NULL
1617179694,e4cf2c0df4178c7b0750cb8b4d0d93a2,PennController,9,0,instructions-training-1,NULL,PennController,9,_Header_,End,1617179466478,NULL
1617179694,e4cf2c0df4178c7b0750cb8b4d0d93a2,PennController,9,0,instructions-training-1,NULL,PennController,9,_Trial_,End,1617179485385,NULL
1617179694,e4cf2c0df4178c7b0750cb8b4d0d93a2,PennController,10,0,show-foods-words-trial,NULL,PennController,10,_Trial_,Start,1617179485388,NULL
1617179694,e4cf2c0df4178c7b0750cb8b4d0d93a2,PennController,10,0,show-foods-words-trial,NULL,PennController,10,_Header_,Start,1617179485388,NULL
1617179694,e4cf2c0df4178c7b0750cb8b4d0d93a2,PennController,10,0,show-foods-words-trial,NULL,PennController,10,_Header_,End,1617179485691,NULL
1617179694,e4cf2c0df4178c7b0750cb8b4d0d93a2,PennController,10,0,show-foods-words-trial,NULL,PennController,10,_Trial_,End,1617179504336,NULL
1617179694,e4cf2c0df4178c7b0750cb8b4d0d93a2,PennController,11,0,show-animals-words-trial,NULL,PennController,11,_Trial_,Start,1617179504340,NULL
1617179694,e4cf2c0df4178c7b0750cb8b4d0d93a2,PennController,11,0,show-animals-words-trial,NULL,PennController,11,_Header_,Start,1617179504340,NULL
1617179694,e4cf2c0df4178c7b0750cb8b4d0d93a2,PennController,11,0,show-animals-words-trial,NULL,PennController,11,_Header_,End,1617179504642,NULL
1617179694,e4cf2c0df4178c7b0750cb8b4d0d93a2,PennController,11,0,show-animals-words-trial,NULL,PennController,11,_Trial_,End,1617179523286,NULL
1617179694,e4cf2c0df4178c7b0750cb8b4d0d93a2,PennController,12,0,show-occupations-words-trial,NULL,PennController,12,_Trial_,Start,1617179523289,NULL
1617179694,e4cf2c0df4178c7b0750cb8b4d0d93a2,PennController,12,0,show-occupations-words-trial,NULL,PennController,12,_Header_,Start,1617179523289,NULL
1617179694,e4cf2c0df4178c7b0750cb8b4d0d93a2,PennController,12,0,show-occupations-words-trial,NULL,PennController,12,_Header_,End,1617179523592,NULL
1617179694,e4cf2c0df4178c7b0750cb8b4d0d93a2,PennController,12,0,show-occupations-words-trial,NULL,PennController,12,_Trial_,End,1617179542238,NULL
1617179694,e4cf2c0df4178c7b0750cb8b4d0d93a2,PennController,13,0,show-clothing-words-trial,NULL,PennController,13,_Trial_,Start,1617179542243,NULL
1617179694,e4cf2c0df4178c7b0750cb8b4d0d93a2,PennController,13,0,show-clothing-words-trial,NULL,PennController,13,_Header_,Start,1617179542243,NULL
1617179694,e4cf2c0df4178c7b0750cb8b4d0d93a2,PennController,13,0,show-clothing-words-trial,NULL,PennController,13,_Header_,End,1617179542545,NULL
1617179694,e4cf2c0df4178c7b0750cb8b4d0d93a2,PennController,13,0,show-clothing-words-trial,NULL,PennController,13,_Trial_,End,1617179561200,NULL
1617179694,e4cf2c0df4178c7b0750cb8b4d0d93a2,PennController,14,0,instructions-training-2,NULL,PennController,14,_Trial_,Start,1617179561202,NULL
1617179694,e4cf2c0df4178c7b0750cb8b4d0d93a2,PennController,14,0,instructions-training-2,NULL,PennController,14,_Header_,Start,1617179561202,NULL
1617179694,e4cf2c0df4178c7b0750cb8b4d0d93a2,PennController,14,0,instructions-training-2,NULL,PennController,14,_Header_,End,1617179561505,NULL
